# Data format: "%int(Month)/%int(Day)/%int(Year) %int(Hours):%int(Minutes):%float(Seconds) %float(CorrectedAccelX),%float(CorrectedAccelY),%float(CorrectedAccelZ)"
03/26/20 14:24:19.040079 0.23120,0.71289,0.78027
03/26/20 14:24:19.049412 0.18530,0.69116,0.79102
03/26/20 14:24:19.058493 0.16772,0.69287,0.79150
03/26/20 14:24:19.067825 0.16772,0.71802,0.79199
03/26/20 14:24:19.077160 0.14429,0.72070,0.79199
03/26/20 14:24:19.086494 0.11670,0.70142,0.77783
03/26/20 14:24:19.095827 0.09570,0.69556,0.75049
03/26/20 14:24:19.103033 0.07178,0.68359,0.73608
03/26/20 14:24:19.112345 0.03931,0.66602,0.70947
03/26/20 14:24:19.121677 0.01367,0.63330,0.68945
03/26/20 14:24:19.131010 -0.00781,0.59082,0.67529
03/26/20 14:24:19.140343 -0.00146,0.56299,0.66602
03/26/20 14:24:19.149668 0.01074,0.53613,0.65308
03/26/20 14:24:19.158993 -0.00098,0.54614,0.63184
03/26/20 14:24:19.168068 -0.00439,0.58301,0.63306
03/26/20 14:24:19.177382 0.00098,0.58032,0.63403
03/26/20 14:24:19.186701 -0.00562,0.55273,0.63062
03/26/20 14:24:19.196030 -0.00439,0.52783,0.62451
03/26/20 14:24:19.205849 -0.00269,0.49707,0.62598
03/26/20 14:24:19.215193 -0.00781,0.47778,0.63281
03/26/20 14:24:19.224539 -0.01392,0.47119,0.62988
03/26/20 14:24:19.233639 -0.02100,0.46069,0.62891
03/26/20 14:24:19.242979 -0.01489,0.45532,0.62988
03/26/20 14:24:19.252319 -0.00146,0.46240,0.64038
03/26/20 14:24:19.261635 0.03687,0.50513,0.65918
03/26/20 14:24:19.270948 0.04785,0.57593,0.66309
03/26/20 14:24:19.280254 0.01709,0.65625,0.65820
03/26/20 14:24:19.289566 -0.00806,0.68213,0.65942
03/26/20 14:24:19.299381 -0.01611,0.64819,0.67017
03/26/20 14:24:19.308470 -0.02466,0.63135,0.68457
03/26/20 14:24:19.317804 -0.06348,0.63110,0.68994
03/26/20 14:24:19.327127 -0.10229,0.63110,0.69116
03/26/20 14:24:19.336466 -0.11768,0.63623,0.69360
03/26/20 14:24:19.345806 -0.12183,0.63208,0.69531
03/26/20 14:24:19.355148 -0.11621,0.62207,0.71289
03/26/20 14:24:19.364483 -0.12183,0.63721,0.72754
03/26/20 14:24:19.373577 -0.12402,0.69189,0.74951
03/26/20 14:24:19.382919 -0.11597,0.72607,0.79834
03/26/20 14:24:19.388287 -0.09961,0.75073,0.81348
03/26/20 14:24:19.397619 -0.06079,0.82520,0.82715
03/26/20 14:24:19.406750 -0.02612,0.88477,0.84692
03/26/20 14:24:19.416119 -0.01123,0.87207,0.87207
03/26/20 14:24:19.425451 0.00659,0.78784,0.89526
03/26/20 14:24:19.434761 0.01685,0.71729,0.91040
03/26/20 14:24:19.444099 -0.01611,0.64526,0.91187
03/26/20 14:24:19.453442 -0.07935,0.62231,0.92188
03/26/20 14:24:19.462790 -0.12939,0.63770,0.92993
03/26/20 14:24:19.471876 -0.18555,0.68359,0.93652
03/26/20 14:24:19.477238 -0.21411,0.69873,0.94434
03/26/20 14:24:19.486574 -0.26514,0.76367,0.97485
03/26/20 14:24:19.495918 -0.31226,0.86108,1.01099
03/26/20 14:24:19.505014 -0.31836,0.96338,1.01636
03/26/20 14:24:19.514355 -0.32178,1.02344,0.99854
03/26/20 14:24:19.523693 -0.32349,1.04150,0.95776
03/26/20 14:24:19.533037 -0.34204,1.03174,0.90796
03/26/20 14:24:19.542385 -0.36621,0.98633,0.85400
03/26/20 14:24:19.551729 -0.35767,0.92432,0.80884
03/26/20 14:24:19.561071 -0.41577,0.80273,0.84351
03/26/20 14:24:19.570643 -0.35400,0.74976,0.87573
03/26/20 14:24:19.580031 -0.27661,0.67993,0.85693
03/26/20 14:24:19.589380 -0.23560,0.61157,0.87231
03/26/20 14:24:19.598722 -0.19971,0.56152,0.88477
03/26/20 14:24:19.608065 -0.23975,0.53833,0.89404
03/26/20 14:24:19.617407 -0.22559,0.61523,0.85010
03/26/20 14:24:19.626751 -0.22510,0.71313,0.77979
03/26/20 14:24:19.635851 -0.22266,0.78101,0.73633
03/26/20 14:24:19.645205 -0.21753,0.83081,0.69580
03/26/20 14:24:19.654564 -0.19360,0.84277,0.67725
03/26/20 14:24:19.659933 -0.19360,0.84204,0.67725
03/26/20 14:24:19.669277 -0.18066,0.83105,0.67822
03/26/20 14:24:19.678383 -0.17603,0.82788,0.67334
03/26/20 14:24:19.687729 -0.17383,0.81201,0.67114
03/26/20 14:24:19.697077 -0.17114,0.78223,0.67285
03/26/20 14:24:19.706417 -0.14136,0.74976,0.68555
03/26/20 14:24:19.715763 -0.07910,0.73608,0.69873
03/26/20 14:24:19.725103 0.00562,0.74609,0.70117
03/26/20 14:24:19.734428 0.07861,0.78809,0.70068
03/26/20 14:24:19.743517 0.11719,0.89966,0.69312
03/26/20 14:24:19.748875 0.11475,0.95166,0.69727
03/26/20 14:24:19.758219 0.10547,1.02026,0.67065
03/26/20 14:24:19.767563 0.08765,1.08203,0.63843
03/26/20 14:24:19.776661 0.06006,1.07495,0.61816
03/26/20 14:24:19.786011 0.02979,1.05249,0.59448
03/26/20 14:24:19.795361 -0.00488,1.05078,0.56982
03/26/20 14:24:19.804728 -0.01660,1.04443,0.55322
03/26/20 14:24:19.814085 -0.02075,1.01099,0.54736
03/26/20 14:24:19.823452 -0.02100,0.97192,0.52124
03/26/20 14:24:19.832817 -0.03271,0.96704,0.51025
03/26/20 14:24:19.842661 -0.02563,0.94629,0.52783
03/26/20 14:24:19.851767 -0.02100,0.89502,0.54395
03/26/20 14:24:19.861118 -0.02539,0.87573,0.53296
03/26/20 14:24:19.870472 -0.01245,0.88574,0.53027
03/26/20 14:24:19.879816 0.01904,0.88477,0.54883
03/26/20 14:24:19.889149 0.05298,0.89624,0.55566
03/26/20 14:24:19.898485 0.07861,0.92041,0.55273
03/26/20 14:24:19.907812 0.09326,0.93677,0.56494
03/26/20 14:24:19.916899 0.09961,0.96338,0.55835
03/26/20 14:24:19.926220 0.07568,1.00488,0.55444
03/26/20 14:24:19.931570 0.05371,1.03101,0.55908
03/26/20 14:24:19.940888 0.02856,1.07007,0.56250
03/26/20 14:24:19.949963 0.00171,1.10596,0.56055
03/26/20 14:24:19.959282 -0.01318,1.11792,0.55273
03/26/20 14:24:19.968615 -0.00830,1.14355,0.55078
03/26/20 14:24:19.977938 -0.00391,1.17017,0.55566
03/26/20 14:24:19.987251 0.04199,1.18481,0.58984
03/26/20 14:24:19.996573 0.08984,1.16846,0.60620
03/26/20 14:24:20.005892 0.13037,1.19531,0.58301
03/26/20 14:24:20.014952 0.16626,1.21729,0.56543
03/26/20 14:24:20.020296 0.17236,1.21729,0.55737
03/26/20 14:24:20.029612 0.18652,1.19580,0.55688
03/26/20 14:24:20.038921 0.20337,1.14624,0.57397
03/26/20 14:24:20.047997 0.24561,1.05762,0.60083
03/26/20 14:24:20.057318 0.24170,1.01245,0.61035
03/26/20 14:24:20.066639 0.27368,1.01025,0.61523
03/26/20 14:24:20.075962 0.31714,1.01270,0.63525
03/26/20 14:24:20.085270 0.36694,1.00391,0.65649
03/26/20 14:24:20.094582 0.41333,1.08472,0.66260
03/26/20 14:24:20.103901 0.45581,1.22583,0.66650
03/26/20 14:24:20.112995 0.48901,1.26074,0.69849
03/26/20 14:24:20.118359 0.41260,1.19507,0.74170
03/26/20 14:24:20.127703 0.37646,1.20752,0.72510
03/26/20 14:24:20.137058 0.45386,1.13647,0.66406
03/26/20 14:24:20.146164 0.46997,1.10010,0.64551
03/26/20 14:24:20.155523 1.26123,0.60889,0.50195
03/26/20 14:24:20.164873 -0.12573,1.63550,0.52051
03/26/20 14:24:20.174229 0.14722,1.13354,0.61108
03/26/20 14:24:20.183571 0.22510,0.91553,0.57813
03/26/20 14:24:20.192911 -0.05933,0.97705,0.41479
03/26/20 14:24:20.202269 -0.11230,0.75635,0.33252
03/26/20 14:24:20.212091 -0.08838,0.43774,0.35376
03/26/20 14:24:20.221169 -0.13062,0.19727,0.38428
03/26/20 14:24:20.230497 -0.34375,0.08887,0.39111
03/26/20 14:24:20.239841 -0.42065,0.05566,0.39478
03/26/20 14:24:20.249187 -0.28735,0.00098,0.38623
03/26/20 14:24:20.258518 -0.10718,0.19263,0.34766
03/26/20 14:24:20.267862 -0.12036,0.29419,0.31299
03/26/20 14:24:20.277210 -0.17944,0.04297,0.34106
03/26/20 14:24:20.286322 -0.17432,-0.04834,0.29614
03/26/20 14:24:20.295696 -0.27661,-0.04346,0.37939
03/26/20 14:24:20.301071 -0.22119,0.00928,0.50635
03/26/20 14:24:20.310444 -0.24048,-0.17065,0.27173
03/26/20 14:24:20.319569 -0.18579,-0.18042,0.22803
03/26/20 14:24:20.328941 -0.27832,-0.26099,0.25244
03/26/20 14:24:20.338324 -0.36353,-0.48682,0.20923
03/26/20 14:24:20.347700 -0.44482,-0.40698,-0.00879
03/26/20 14:24:20.357061 -1.79468,-1.06396,-0.36328
03/26/20 14:24:20.366427 -1.24072,-0.51489,-0.21167
03/26/20 14:24:20.375807 0.17383,-1.22241,0.20581
03/26/20 14:24:20.384924 0.89331,-1.68286,0.87598
03/26/20 14:24:20.390293 0.72778,-1.40601,0.89307
03/26/20 14:24:20.399658 -0.46484,-0.39404,0.70288
03/26/20 14:24:20.409029 -0.82642,0.91406,0.36230
03/26/20 14:24:20.418388 0.58716,0.22876,1.64746
03/26/20 14:24:20.427500 1.05127,-0.19580,0.21704
03/26/20 14:24:20.436848 0.50586,-0.03125,0.90796
03/26/20 14:24:20.446203 -0.06641,0.37842,1.19556
03/26/20 14:24:20.455572 -0.67310,-0.46216,1.45288
03/26/20 14:24:20.464932 -0.51147,0.01074,0.76685
03/26/20 14:24:20.474279 0.07422,1.07080,0.93335
03/26/20 14:24:20.484100 -0.10840,0.53540,1.00513
03/26/20 14:24:20.493198 -0.30176,-0.13916,1.04858
03/26/20 14:24:20.502550 -0.54688,-0.08276,0.85864
03/26/20 14:24:20.511888 -0.55957,0.13867,0.78198
03/26/20 14:24:20.521227 -0.51147,0.01074,0.71118
03/26/20 14:24:20.530565 -0.33618,0.02686,0.85352
03/26/20 14:24:20.539925 -0.28955,-0.21606,1.04810
03/26/20 14:24:20.549280 -0.20020,-0.24707,1.01440
03/26/20 14:24:20.558365 -0.13477,-0.06714,1.21826
03/26/20 14:24:20.567711 -0.20605,0.25317,0.84326
03/26/20 14:24:20.573069 -0.10986,0.52490,0.98242
03/26/20 14:24:20.582403 -0.18652,0.59766,0.77612
03/26/20 14:24:20.591486 -0.11621,0.81079,0.70703
03/26/20 14:24:20.600828 -0.01416,0.73779,0.90112
03/26/20 14:24:20.610174 -0.08154,0.85791,0.75098
03/26/20 14:24:20.619526 -0.12964,0.39282,0.69922
03/26/20 14:24:20.628855 0.07666,-0.06152,0.89990
03/26/20 14:24:20.638180 0.07544,-0.19238,1.06543
03/26/20 14:24:20.647512 -0.20337,-0.38721,1.04761
03/26/20 14:24:20.656612 -0.30298,-0.52954,0.53418
03/26/20 14:24:20.661964 -0.13599,-0.13916,0.55542
03/26/20 14:24:20.671309 -0.39111,-0.00342,0.34595
03/26/20 14:24:20.680639 -0.05151,0.19653,0.80469
03/26/20 14:24:20.689972 -0.06982,0.17212,0.63696
03/26/20 14:24:20.699047 0.00537,0.22437,0.81055
03/26/20 14:24:20.708363 0.08789,0.23682,0.97534
03/26/20 14:24:20.717678 0.14258,0.14868,0.98120
03/26/20 14:24:20.726996 0.10913,0.30640,0.91870
03/26/20 14:24:20.736319 0.14307,0.19043,0.85840
03/26/20 14:24:20.745646 0.25635,-0.03613,1.08374
03/26/20 14:24:20.755466 0.37695,0.14990,1.01538
03/26/20 14:24:20.764530 0.29907,-0.02148,0.92676
03/26/20 14:24:20.773853 -0.34058,0.42725,0.67310
03/26/20 14:24:20.783178 -0.07031,-0.12573,0.68408
03/26/20 14:24:20.792486 0.03442,0.14551,0.56665
03/26/20 14:24:20.801807 -0.36182,0.00317,0.25879
03/26/20 14:24:20.811152 -0.42310,0.12988,0.23193
03/26/20 14:24:20.820505 -0.65576,-0.04004,0.15234
03/26/20 14:24:20.829611 -0.53491,-0.09546,0.23804
03/26/20 14:24:20.838966 -0.53589,-0.03198,0.21118
03/26/20 14:24:20.844332 -0.63477,0.21631,0.07446
03/26/20 14:24:20.853680 -0.65405,0.11572,0.00659
03/26/20 14:24:20.862791 -0.25586,-0.47192,0.30347
03/26/20 14:24:20.872149 -0.27539,-0.52490,0.44214
03/26/20 14:24:20.881498 -0.43018,-0.11450,0.14380
03/26/20 14:24:20.890867 -0.43896,0.08423,0.15503
03/26/20 14:24:20.900232 -0.64063,0.20605,0.14404
03/26/20 14:24:20.909594 -0.60278,0.48486,0.17944
03/26/20 14:24:20.918945 -0.48511,0.36646,0.39063
03/26/20 14:24:20.928057 -0.47974,0.52466,0.41748
03/26/20 14:24:20.933430 -0.39136,0.67065,0.31006
03/26/20 14:24:20.942772 -0.28589,0.47852,0.27148
03/26/20 14:24:20.952099 0.15430,0.49219,0.51758
03/26/20 14:24:20.961411 0.29858,0.44727,0.55542
03/26/20 14:24:20.970474 0.17529,0.67480,0.49414
03/26/20 14:24:20.979788 0.00415,0.54565,0.58081
03/26/20 14:24:20.989121 -0.26245,0.73901,0.51294
03/26/20 14:24:20.998444 -0.43945,0.71631,0.46021
03/26/20 14:24:21.007769 -0.49854,0.90234,0.50195
03/26/20 14:24:21.017097 -0.31665,0.98169,0.53857
03/26/20 14:24:21.026899 -0.23926,0.92554,0.50269
03/26/20 14:24:21.035978 -0.23096,0.96240,0.51660
03/26/20 14:24:21.045311 -0.61938,0.92896,0.74854
03/26/20 14:24:21.054642 0.12891,1.68091,-0.15405
03/26/20 14:24:21.063957 -0.20386,1.28174,0.44727
03/26/20 14:24:21.073282 -0.79468,1.23218,0.16089
03/26/20 14:24:21.082605 -0.72388,1.21265,0.30396
03/26/20 14:24:21.091925 -0.58643,1.06958,0.27466
03/26/20 14:24:21.101006 -0.37476,1.11084,0.29150
03/26/20 14:24:21.110346 -0.13379,1.15576,0.25708
03/26/20 14:24:21.115711 -0.11011,1.25684,0.40869
03/26/20 14:24:21.125048 0.05762,1.10205,0.38623
03/26/20 14:24:21.134125 0.05176,1.15063,0.49463
03/26/20 14:24:21.143463 0.02783,1.12769,0.38867
03/26/20 14:24:21.152798 0.06592,1.05322,0.48877
03/26/20 14:24:21.162123 0.15112,0.96777,0.46167
03/26/20 14:24:21.171438 0.27344,0.94946,0.48828
03/26/20 14:24:21.180759 0.22803,0.88110,0.51709
03/26/20 14:24:21.190077 0.19238,0.81348,0.50903
03/26/20 14:24:21.199162 0.04590,1.21436,0.31323
03/26/20 14:24:21.204517 -0.01514,1.46045,0.25879
03/26/20 14:24:21.213858 -0.02661,1.80249,0.33765
03/26/20 14:24:21.223190 -0.12988,1.96606,0.30127
03/26/20 14:24:21.232265 -0.12231,1.72803,0.39941
03/26/20 14:24:21.241598 -0.05493,1.63940,0.34155
03/26/20 14:24:21.250937 0.08350,1.46826,0.28198
03/26/20 14:24:21.260265 0.25781,1.24878,0.38916
03/26/20 14:24:21.269587 0.53247,1.26611,0.59106
03/26/20 14:24:21.278904 0.36914,1.29321,0.55859
03/26/20 14:24:21.288214 0.31836,1.42310,0.60449
03/26/20 14:24:21.297762 0.24390,1.35889,0.61475
03/26/20 14:24:21.307079 0.26196,1.52783,0.65161
03/26/20 14:24:21.316401 0.29175,1.61963,0.54590
03/26/20 14:24:21.325720 0.49365,1.57031,0.55713
03/26/20 14:24:21.335037 0.20996,1.51025,0.56348
03/26/20 14:24:21.344362 0.02197,0.92871,0.25513
03/26/20 14:24:21.353683 0.25562,1.15137,0.30664
03/26/20 14:24:21.362749 0.42090,1.21558,0.52881
03/26/20 14:24:21.372061 0.31226,0.98242,0.49243
03/26/20 14:24:21.381371 0.19580,1.11646,0.37109
03/26/20 14:24:21.390686 0.22095,1.09131,0.45190
03/26/20 14:24:21.396032 0.19214,1.05688,0.53711
03/26/20 14:24:21.405096 0.05396,1.01147,0.65747
03/26/20 14:24:21.414412 0.00781,1.04126,0.39551
03/26/20 14:24:21.423721 0.06470,1.03174,0.43091
03/26/20 14:24:21.433031 0.06958,1.03174,0.40820
03/26/20 14:24:21.442347 0.09033,1.00659,0.45605
03/26/20 14:24:21.451662 0.13135,1.05688,0.52686
03/26/20 14:24:21.460733 0.06641,1.03394,0.43921
03/26/20 14:24:21.470058 0.09375,1.07104,0.39209
03/26/20 14:24:21.479378 0.14111,1.12866,0.40479
03/26/20 14:24:21.484730 0.13647,1.13696,0.42676
03/26/20 14:24:21.494055 0.05103,1.01074,0.37305
03/26/20 14:24:21.503136 0.01953,0.96240,0.30542
03/26/20 14:24:21.512459 0.05151,0.97754,0.27612
03/26/20 14:24:21.521778 0.11108,0.96582,0.33203
03/26/20 14:24:21.531101 0.17163,0.94531,0.32861
03/26/20 14:24:21.540419 0.19678,0.88184,0.30005
03/26/20 14:24:21.549746 0.31934,0.94531,0.25952
03/26/20 14:24:21.559078 0.28857,0.80322,0.29736
03/26/20 14:24:21.568157 0.71094,1.47852,0.46973
03/26/20 14:24:21.573515 -0.11841,1.39575,0.47314
03/26/20 14:24:21.582848 0.42676,1.22144,0.32153
03/26/20 14:24:21.592177 0.07837,1.36035,0.51318
03/26/20 14:24:21.601257 0.25708,1.16382,0.42188
03/26/20 14:24:21.610586 0.20215,1.02856,0.41748
03/26/20 14:24:21.619923 0.15723,0.98779,0.34204
03/26/20 14:24:21.629252 0.31274,0.90845,0.40454
03/26/20 14:24:21.638588 0.32227,0.93677,0.39990
03/26/20 14:24:21.647913 0.26929,0.86523,0.30444
03/26/20 14:24:21.657242 0.41699,1.07495,0.09619
03/26/20 14:24:21.666798 0.29932,0.89941,0.18091
03/26/20 14:24:21.676125 0.25610,0.71704,0.25781
03/26/20 14:24:21.685448 0.30542,0.80542,0.18262
03/26/20 14:24:21.694773 0.42065,0.81763,0.20850
03/26/20 14:24:21.704092 0.55957,0.80591,0.26538
03/26/20 14:24:21.713417 0.73486,0.85107,0.19849
03/26/20 14:24:21.722734 0.80640,0.90332,0.17261
03/26/20 14:24:21.731819 0.96045,0.96460,0.13989
03/26/20 14:24:21.741159 1.13916,1.04858,0.21265
03/26/20 14:24:21.750505 1.30859,1.08667,0.22339
03/26/20 14:24:21.755871 1.38208,1.10596,0.21143
03/26/20 14:24:21.764988 1.48853,1.16016,0.18237
03/26/20 14:24:21.774330 1.53296,1.19604,0.26709
03/26/20 14:24:21.783686 1.47412,1.21606,0.32227
03/26/20 14:24:21.793022 1.25708,1.23755,0.18896
03/26/20 14:24:21.802370 1.07617,1.19043,0.07788
03/26/20 14:24:21.811728 0.97119,1.09180,0.05933
03/26/20 14:24:21.821079 0.91089,0.93628,0.08350
03/26/20 14:24:21.830179 0.83252,0.81274,0.11304
03/26/20 14:24:21.839535 0.78027,0.71436,0.12793
03/26/20 14:24:21.848881 0.76343,0.77686,0.07690
03/26/20 14:24:21.854242 0.75000,0.84912,0.06299
03/26/20 14:24:21.863583 0.76709,0.92334,-0.03809
03/26/20 14:24:21.872671 0.71851,0.96851,-0.07373
03/26/20 14:24:21.882021 0.63330,0.99487,-0.09521
03/26/20 14:24:21.891375 0.58154,0.95752,-0.09595
03/26/20 14:24:21.900734 0.53882,0.89160,-0.08472
03/26/20 14:24:21.910078 0.51270,0.77661,-0.04932
03/26/20 14:24:21.919409 0.47632,0.66968,-0.02686
03/26/20 14:24:21.928736 0.45361,0.62646,-0.03174
03/26/20 14:24:21.937817 0.37573,0.63892,-0.08569
03/26/20 14:24:21.943176 0.28662,0.65869,-0.13281
03/26/20 14:24:21.952509 0.16577,0.67114,-0.17090
03/26/20 14:24:21.961832 0.11597,0.70679,-0.15820
03/26/20 14:24:21.970915 0.11743,0.79785,-0.12646
03/26/20 14:24:21.980236 0.13574,0.92603,-0.10596
03/26/20 14:24:21.989559 0.15332,1.02026,-0.09277
03/26/20 14:24:21.998892 0.06421,1.08960,-0.04370
03/26/20 14:24:22.008230 0.03687,1.06055,0.00806
03/26/20 14:24:22.017574 0.04639,1.01587,0.05176
03/26/20 14:24:22.026909 0.03198,0.96069,0.06543
03/26/20 14:24:22.036491 -0.02100,0.90820,0.12476
03/26/20 14:24:22.045835 -0.02881,0.85913,0.14087
03/26/20 14:24:22.055183 -0.01685,0.79688,0.13452
03/26/20 14:24:22.064537 0.00684,0.77051,0.10840
03/26/20 14:24:22.073875 0.02930,0.79297,0.11523
03/26/20 14:24:22.083195 0.03394,0.83496,0.10791
03/26/20 14:24:22.092527 -0.00464,0.87012,0.10449
03/26/20 14:24:22.101612 -0.06689,0.89551,0.12695
03/26/20 14:24:22.110954 -0.07178,0.91797,0.16162
03/26/20 14:24:22.120296 -0.09424,0.90430,0.18896
03/26/20 14:24:22.125652 -0.10205,0.89990,0.19751
03/26/20 14:24:22.134993 -0.07324,0.90430,0.23560
03/26/20 14:24:22.144079 -0.06006,0.92578,0.26563
03/26/20 14:24:22.153412 -0.05420,0.92993,0.27881
03/26/20 14:24:22.162748 -0.03833,0.88525,0.30762
03/26/20 14:24:22.172091 -0.01807,0.79810,0.33472
03/26/20 14:24:22.181433 0.03491,0.81445,0.31812
03/26/20 14:24:22.190781 0.03564,0.88477,0.23389
03/26/20 14:24:22.200132 0.02686,0.93604,0.22852
03/26/20 14:24:22.209217 0.02954,0.97632,0.25049
03/26/20 14:24:22.214575 0.02905,0.98096,0.26318
03/26/20 14:24:22.223904 0.02881,0.93115,0.30151
03/26/20 14:24:22.233242 0.03369,0.86987,0.34961
03/26/20 14:24:22.242323 0.03735,0.78711,0.39893
03/26/20 14:24:22.251644 0.04028,0.77612,0.40234
03/26/20 14:24:22.260975 0.04053,0.77051,0.40332
03/26/20 14:24:22.270306 0.05444,0.75781,0.41309
03/26/20 14:24:22.279636 0.05566,0.75513,0.43677
03/26/20 14:24:22.288965 0.05176,0.76953,0.46826
03/26/20 14:24:22.298300 0.07935,0.85864,0.46875
03/26/20 14:24:22.307877 0.05273,0.93896,0.43604
03/26/20 14:24:22.317225 0.03491,0.92334,0.44580
03/26/20 14:24:22.326578 0.05127,0.90894,0.49805
03/26/20 14:24:22.335930 0.04443,0.93164,0.56543
03/26/20 14:24:22.345272 0.04224,0.95483,0.61499
03/26/20 14:24:22.354616 0.04590,0.95068,0.66699
03/26/20 14:24:22.363956 0.05420,0.94678,0.72412
03/26/20 14:24:22.373053 0.05347,0.91528,0.77808
03/26/20 14:24:22.382397 0.05566,0.82959,0.82227
03/26/20 14:24:22.391729 0.10181,0.89233,0.80103
03/26/20 14:24:22.401064 0.12280,1.03125,0.71265
03/26/20 14:24:22.406425 0.09326,1.08130,0.65820
03/26/20 14:24:22.415520 0.07031,1.17700,0.53516
03/26/20 14:24:22.424860 0.04175,1.24561,0.43091
03/26/20 14:24:22.434202 -0.02173,1.22778,0.39380
03/26/20 14:24:22.443548 -0.04346,1.18115,0.36670
03/26/20 14:24:22.452900 -0.08691,1.13501,0.37695
03/26/20 14:24:22.462250 -0.11230,1.03784,0.43457
03/26/20 14:24:22.471598 -0.08032,0.93506,0.46875
03/26/20 14:24:22.480688 -0.04321,0.87256,0.47339
03/26/20 14:24:22.490017 -0.01123,0.83960,0.42993
03/26/20 14:24:22.495373 -0.00098,0.83301,0.39966
03/26/20 14:24:22.504694 0.01050,0.82373,0.34595
03/26/20 14:24:22.513762 0.02319,0.82471,0.31738
03/26/20 14:24:22.523090 0.03320,0.81055,0.28760
03/26/20 14:24:22.532415 0.01855,0.76929,0.27905
03/26/20 14:24:22.541740 0.05737,0.77588,0.27100
03/26/20 14:24:22.551058 0.10327,0.83276,0.24121
03/26/20 14:24:22.560377 0.06226,0.83887,0.25415
03/26/20 14:24:22.569696 0.04736,0.81177,0.27832
03/26/20 14:24:22.578766 0.05542,0.77954,0.31616
03/26/20 14:24:22.584114 0.05859,0.75806,0.33203
03/26/20 14:24:22.593439 0.04907,0.69189,0.36621
03/26/20 14:24:22.602760 0.04175,0.64941,0.38525
03/26/20 14:24:22.611830 0.04956,0.57617,0.40234
03/26/20 14:24:22.621138 0.05200,0.53711,0.42627
03/26/20 14:24:22.630447 0.05859,0.51611,0.44141
03/26/20 14:24:22.639765 0.05518,0.49780,0.45923
03/26/20 14:24:22.649082 0.05176,0.48291,0.45996
03/26/20 14:24:22.658398 0.05298,0.51709,0.47559
03/26/20 14:24:22.667709 0.04688,0.59839,0.49609
03/26/20 14:24:22.677248 0.03369,0.66650,0.49829
03/26/20 14:24:22.686566 -0.00903,0.68066,0.49072
03/26/20 14:24:22.695873 -0.04395,0.68262,0.48535
03/26/20 14:24:22.705181 -0.07593,0.67993,0.50391
03/26/20 14:24:22.714499 -0.10376,0.67773,0.53613
03/26/20 14:24:22.723812 -0.12061,0.65137,0.57324
03/26/20 14:24:22.733130 -0.11938,0.62012,0.61841
03/26/20 14:24:22.742191 -0.10645,0.65527,0.64502
03/26/20 14:24:22.751507 -0.11499,0.72046,0.66064
03/26/20 14:24:22.760828 -0.12500,0.81030,0.65161
03/26/20 14:24:22.766178 -0.11914,0.84839,0.64014
03/26/20 14:24:22.775492 -0.11279,0.90186,0.65430
03/26/20 14:24:22.784557 -0.09155,0.90625,0.68359
03/26/20 14:24:22.793871 -0.09448,0.89575,0.70068
03/26/20 14:24:22.803196 -0.13477,0.89282,0.70313
03/26/20 14:24:22.812512 -0.14502,0.91040,0.68750
03/26/20 14:24:22.821833 -0.10571,0.92773,0.67456
03/26/20 14:24:22.831152 -0.09766,0.94775,0.66797
03/26/20 14:24:22.840220 -0.09937,0.94336,0.67334
03/26/20 14:24:22.849527 -0.08130,0.90454,0.68701
03/26/20 14:24:22.854879 -0.05884,0.89282,0.70044
03/26/20 14:24:22.864199 -0.02319,0.90039,0.71680
03/26/20 14:24:22.873516 0.01074,0.93018,0.70508
03/26/20 14:24:22.882580 -0.01538,0.93848,0.70020
03/26/20 14:24:22.891893 -0.07788,0.90625,0.66357
03/26/20 14:24:22.901201 -0.11621,0.80005,0.62988
03/26/20 14:24:22.910505 -0.24976,0.71411,0.61304
03/26/20 14:24:22.919821 -0.31421,0.73755,0.56934
03/26/20 14:24:22.929131 -0.24414,0.79907,0.53003
03/26/20 14:24:22.938442 -0.18188,0.86572,0.49756
03/26/20 14:24:22.947991 -0.13110,0.93506,0.46875
03/26/20 14:24:22.957312 -0.06055,0.96387,0.42285
03/26/20 14:24:22.966637 -0.03345,0.92798,0.38257
03/26/20 14:24:22.975956 0.26538,0.38745,0.12915
03/26/20 14:24:22.985254 0.02075,0.41699,0.38647
03/26/20 14:24:22.994568 -0.39551,0.65942,0.49805
03/26/20 14:24:23.003876 -0.51709,0.90283,0.56323
03/26/20 14:24:23.012941 -0.37427,0.95825,0.40771
03/26/20 14:24:23.022255 -0.09424,1.03540,0.24756
03/26/20 14:24:23.031569 0.06201,1.26636,0.18018
03/26/20 14:24:23.036903 0.05518,1.39966,0.17041
03/26/20 14:24:23.045967 0.02856,1.31592,0.19092
03/26/20 14:24:23.055279 0.05762,1.05640,0.26831
03/26/20 14:24:23.064592 0.01392,0.94629,0.29517
03/26/20 14:24:23.073910 0.01270,0.87817,0.29956
03/26/20 14:24:23.083227 0.03516,0.76270,0.29590
03/26/20 14:24:23.092533 0.05811,0.70044,0.27051
03/26/20 14:24:23.101854 0.10205,0.74292,0.22510
03/26/20 14:24:23.110916 0.00854,0.73364,0.22754
03/26/20 14:24:23.120241 0.06030,0.74414,0.19727
03/26/20 14:24:23.129553 -0.06860,0.62354,0.23022
03/26/20 14:24:23.134895 -0.14575,0.57764,0.28491
03/26/20 14:24:23.143948 -0.21606,0.59668,0.32861
03/26/20 14:24:23.153254 -0.20288,0.69263,0.27295
03/26/20 14:24:23.162567 -0.10620,0.92944,0.14917
03/26/20 14:24:23.171900 -0.02124,1.20972,0.03687
03/26/20 14:24:23.181223 0.02979,1.30249,-0.02637
03/26/20 14:24:23.190527 0.04883,1.26318,0.03320
03/26/20 14:24:23.199842 0.09399,1.09668,0.23730
03/26/20 14:24:23.208908 0.23730,0.97607,0.43677
03/26/20 14:24:23.218227 0.39575,0.87598,0.64380
03/26/20 14:24:23.223579 0.40552,0.88721,0.71899
03/26/20 14:24:23.232901 0.43359,0.97314,0.75830
03/26/20 14:24:23.241976 0.39209,1.18774,0.67993
03/26/20 14:24:23.251295 0.40796,1.13965,0.61011
03/26/20 14:24:23.260622 0.32227,1.22803,0.57324
03/26/20 14:24:23.269953 0.30493,1.35962,0.54126
03/26/20 14:24:23.279297 0.53662,1.45801,0.46948
03/26/20 14:24:23.288635 0.48730,1.45239,0.46680
03/26/20 14:24:23.297962 0.35938,1.11548,0.63818
03/26/20 14:24:23.307032 0.58740,1.02612,0.65625
03/26/20 14:24:23.312384 0.60522,1.04199,0.62231
03/26/20 14:24:23.321705 0.22681,0.69116,0.78613
03/26/20 14:24:23.331038 0.39990,0.87500,0.49023
03/26/20 14:24:23.340368 0.39160,0.91016,0.35205
03/26/20 14:24:23.349457 0.39648,0.98096,0.28760
03/26/20 14:24:23.358782 0.38354,1.00659,0.34521
03/26/20 14:24:23.368101 0.44360,0.83203,0.45605
03/26/20 14:24:23.377430 0.46240,0.86060,0.50195
03/26/20 14:24:23.386751 0.47656,0.98193,0.46338
03/26/20 14:24:23.396071 0.32983,1.05713,0.45532
03/26/20 14:24:23.405874 0.29688,0.89014,0.59937
03/26/20 14:24:23.414961 0.29590,0.84326,0.69336
03/26/20 14:24:23.424288 0.13159,0.86523,0.55396
03/26/20 14:24:23.433601 0.01660,0.84204,0.34863
03/26/20 14:24:23.442930 0.04150,0.58008,0.36401
03/26/20 14:24:23.452255 -0.08325,0.47095,0.36450
03/26/20 14:24:23.461588 -0.02490,0.61987,0.25732
03/26/20 14:24:23.470902 0.01538,0.81421,0.16406
03/26/20 14:24:23.479994 -0.14746,0.81152,0.16333
03/26/20 14:24:23.489327 -0.29028,0.78369,0.21021
03/26/20 14:24:23.494679 -0.34131,0.83838,0.22266
03/26/20 14:24:23.504004 -0.39551,0.91528,0.21289
03/26/20 14:24:23.513081 -0.40771,0.91699,0.18042
03/26/20 14:24:23.522396 -0.34082,0.77759,0.17456
03/26/20 14:24:23.531714 -0.21289,0.70093,0.35767
03/26/20 14:24:23.541033 -0.32642,0.59937,0.30029
03/26/20 14:24:23.550350 -0.20410,0.62109,0.29956
03/26/20 14:24:23.559666 -0.16211,0.72095,0.42163
03/26/20 14:24:23.568979 -0.20386,0.53955,0.34326
03/26/20 14:24:23.578060 -0.13086,0.46997,0.54224
03/26/20 14:24:23.583416 -0.11597,0.46875,0.58887
03/26/20 14:24:23.592756 -0.28833,0.41992,0.50854
03/26/20 14:24:23.602100 -0.24048,0.24658,0.49561
03/26/20 14:24:23.611198 -0.27612,0.40601,0.58643
03/26/20 14:24:23.620544 -0.54956,0.66821,0.37793
03/26/20 14:24:23.629873 -0.59106,0.98633,0.12500
03/26/20 14:24:23.639202 -0.71729,1.35669,0.03931
03/26/20 14:24:23.648541 -0.07837,0.97778,0.09717
03/26/20 14:24:23.657883 -0.15479,0.71899,0.42871
03/26/20 14:24:23.667217 -0.17920,0.50415,0.31445
03/26/20 14:24:23.676773 -0.26343,0.53442,0.29199
03/26/20 14:24:23.686104 -0.43555,0.61426,0.32153
03/26/20 14:24:23.695427 -0.40991,0.61865,0.29785
03/26/20 14:24:23.704763 0.09058,-0.54590,0.82031
03/26/20 14:24:23.714109 -0.98950,1.16748,0.06787
03/26/20 14:24:23.723438 -0.62402,1.65234,-0.56177
03/26/20 14:24:23.732779 -0.69019,1.04761,-0.15991
03/26/20 14:24:23.741880 -0.72412,0.32544,0.07959
03/26/20 14:24:23.751228 -0.59375,0.69067,-0.06250
03/26/20 14:24:23.760565 -0.41821,0.77124,-0.08740
03/26/20 14:24:23.765928 -0.33398,0.81763,0.04980
03/26/20 14:24:23.775269 -0.12085,0.94141,0.25098
03/26/20 14:24:23.784340 -0.18652,0.92139,0.18896
03/26/20 14:24:23.793673 -0.43213,0.88452,-0.05811
03/26/20 14:24:23.803015 -0.57568,0.90088,-0.05835
03/26/20 14:24:23.812357 -0.52295,0.98755,0.10010
03/26/20 14:24:23.821693 -0.46533,1.22290,0.11523
03/26/20 14:24:23.831024 -0.43530,1.33887,0.04663
03/26/20 14:24:23.840359 -0.35327,1.29712,-0.05176
03/26/20 14:24:23.849445 -0.23218,1.02686,0.05859
03/26/20 14:24:23.854799 -0.14160,0.90527,0.15210
03/26/20 14:24:23.864109 -0.11987,0.89307,0.15723
03/26/20 14:24:23.873436 -0.25146,1.04102,-0.09570
03/26/20 14:24:23.882519 -0.25732,1.12109,-0.15991
03/26/20 14:24:23.891850 -0.18896,1.01001,-0.08740
03/26/20 14:24:23.901186 -0.21313,1.05835,-0.05713
03/26/20 14:24:23.910515 -0.21387,1.22168,-0.15869
03/26/20 14:24:23.919838 -0.23462,1.25830,-0.26221
03/26/20 14:24:23.929157 -0.26318,1.24927,-0.27368
03/26/20 14:24:23.938478 -0.21240,1.17334,-0.15625
03/26/20 14:24:23.948038 -0.19971,1.11548,-0.09888
03/26/20 14:24:23.957359 -0.21460,1.12915,-0.20239
03/26/20 14:24:23.966682 -0.26050,1.10498,-0.23242
03/26/20 14:24:23.976011 -0.23584,1.02393,-0.18408
03/26/20 14:24:23.985336 -0.24023,0.95703,-0.16455
03/26/20 14:24:23.994650 -0.22754,0.93555,-0.14038
03/26/20 14:24:24.003967 -0.20508,0.99805,-0.17261
03/26/20 14:24:24.013035 -0.21899,1.01685,-0.18945
03/26/20 14:24:24.022348 -0.22363,1.03394,-0.18188
03/26/20 14:24:24.031656 -0.24097,1.05420,-0.18750
03/26/20 14:24:24.037001 -0.24536,1.08105,-0.22266
03/26/20 14:24:24.046053 -0.31128,1.03882,-0.20288
03/26/20 14:24:24.055355 -0.28711,0.89917,-0.09131
03/26/20 14:24:24.064657 -0.27783,0.82080,0.00562
03/26/20 14:24:24.073956 -0.28003,0.97998,-0.07788
03/26/20 14:24:24.083258 -0.31665,1.04053,-0.12842
03/26/20 14:24:24.092569 -0.34473,1.00854,-0.11499
03/26/20 14:24:24.101871 -0.35449,1.00244,-0.09985
03/26/20 14:24:24.110928 -0.35962,1.03760,-0.10938
03/26/20 14:24:24.120228 -0.36230,1.06543,-0.11230
03/26/20 14:24:24.125572 -0.37427,1.06934,-0.12402
03/26/20 14:24:24.134878 -0.39307,1.06958,-0.16211
03/26/20 14:24:24.144188 -0.43677,1.06445,-0.19946
03/26/20 14:24:24.153252 -0.39917,0.97241,-0.14746
03/26/20 14:24:24.162563 -0.38721,0.95996,-0.12085
03/26/20 14:24:24.171873 -0.41284,0.99219,-0.18091
03/26/20 14:24:24.181183 -0.41211,0.98145,-0.17456
03/26/20 14:24:24.190491 -0.40234,0.95361,-0.15552
03/26/20 14:24:24.199804 -0.41528,0.92529,-0.15698
03/26/20 14:24:24.208870 -0.40332,0.92334,-0.13940
03/26/20 14:24:24.214216 -0.39673,0.92285,-0.13452
03/26/20 14:24:24.223520 -0.36328,0.91211,-0.10010
03/26/20 14:24:24.232828 -0.40161,0.89893,-0.14380
03/26/20 14:24:24.242144 -0.36768,0.93872,-0.15698
03/26/20 14:24:24.251215 -0.40454,0.92432,-0.16748
03/26/20 14:24:24.260527 -0.37524,0.89233,-0.13940
03/26/20 14:24:24.269842 -0.34302,0.85449,-0.09937
03/26/20 14:24:24.279160 -0.34058,0.86816,-0.08105
03/26/20 14:24:24.288479 -0.30762,0.86060,-0.02954
03/26/20 14:24:24.297796 -0.36304,0.84814,-0.06934
03/26/20 14:24:24.307596 -0.33984,0.91699,-0.06055
03/26/20 14:24:24.316671 -0.32593,0.89331,-0.02319
03/26/20 14:24:24.326002 -0.30664,0.87842,-0.00635
03/26/20 14:24:24.335333 -0.33228,0.88379,-0.01611
03/26/20 14:24:24.344650 -0.30591,0.85059,0.02539
03/26/20 14:24:24.353970 -0.29883,0.81421,0.05664
03/26/20 14:24:24.363289 -0.29663,0.83301,0.04175
03/26/20 14:24:24.372606 -0.32031,0.91797,-0.00684
03/26/20 14:24:24.381683 -0.33691,0.96240,-0.02490
03/26/20 14:24:24.391007 -0.33496,0.93896,0.00659
03/26/20 14:24:24.396349 -0.33057,0.92383,0.01709
03/26/20 14:24:24.405664 -0.34570,0.94434,0.00977
03/26/20 14:24:24.414745 -0.36084,0.93457,-0.01758
03/26/20 14:24:24.424072 -0.38306,0.93188,-0.03125
03/26/20 14:24:24.433399 -0.41040,0.92432,-0.03882
03/26/20 14:24:24.442728 -0.41333,0.92944,-0.02881
03/26/20 14:24:24.452053 -0.40332,0.97314,-0.02100
03/26/20 14:24:24.461382 -0.40479,0.97217,-0.01733
03/26/20 14:24:24.470703 -0.41016,0.95117,-0.02222
03/26/20 14:24:24.480257 -0.40015,0.93042,-0.01611
03/26/20 14:24:24.489580 -0.37378,0.96606,-0.03076
03/26/20 14:24:24.498901 -0.38721,0.97729,-0.02832
03/26/20 14:24:24.508223 -0.37549,0.92432,0.01416
03/26/20 14:24:24.517548 -0.38965,0.87500,0.03320
03/26/20 14:24:24.526859 -0.40576,0.87817,0.02881
03/26/20 14:24:24.536186 -0.41357,0.90381,-0.00830
03/26/20 14:24:24.545263 -0.42188,0.90967,-0.01416
03/26/20 14:24:24.554586 -0.40210,0.86987,0.02100
03/26/20 14:24:24.563915 -0.39941,0.87231,0.02783
03/26/20 14:24:24.569271 -0.41675,0.89209,0.01465
03/26/20 14:24:24.578589 -0.44067,0.92383,-0.00073
03/26/20 14:24:24.587662 -0.43921,0.90918,0.01831
03/26/20 14:24:24.596989 -0.42993,0.88379,0.02637
03/26/20 14:24:24.606314 -0.46411,0.84155,0.02734
03/26/20 14:24:24.615635 -0.44141,0.81543,0.02979
03/26/20 14:24:24.624950 -0.44556,0.83813,0.01318
03/26/20 14:24:24.634275 -0.44141,0.82813,0.02271
03/26/20 14:24:24.643354 -0.42920,0.81665,0.05664
03/26/20 14:24:24.652679 -0.42822,0.81396,0.08032
03/26/20 14:24:24.658032 -0.43359,0.82886,0.08032
03/26/20 14:24:24.667362 -0.44873,0.85864,0.07251
03/26/20 14:24:24.676691 -0.46826,0.83301,0.07373
03/26/20 14:24:24.685770 -0.46582,0.82617,0.08789
03/26/20 14:24:24.695095 -0.46216,0.86353,0.09521
03/26/20 14:24:24.704418 -0.46411,0.92773,0.10645
03/26/20 14:24:24.713732 -0.42773,1.00708,0.08447
03/26/20 14:24:24.723034 -0.42871,1.18213,0.09277
03/26/20 14:24:24.732338 -0.44165,1.18848,0.12207
03/26/20 14:24:24.741646 -0.46338,1.11353,0.13794
03/26/20 14:24:24.751190 -0.49438,1.04956,0.13281
03/26/20 14:24:24.760515 -0.49927,0.95557,0.16797
03/26/20 14:24:24.769823 -0.42651,0.94336,0.20093
03/26/20 14:24:24.779137 -0.44189,0.96021,0.18311
03/26/20 14:24:24.788456 -0.41089,0.90063,0.22803
03/26/20 14:24:24.797770 -0.34692,0.94751,0.25391
03/26/20 14:24:24.807074 -0.30322,0.92847,0.35986
03/26/20 14:24:24.816135 -0.31543,1.02344,0.32471
03/26/20 14:24:24.825447 -0.35693,1.02734,0.27612
03/26/20 14:24:24.834757 -0.35840,0.89941,0.34644
03/26/20 14:24:24.844069 -0.31616,0.91577,0.40576
03/26/20 14:24:24.853863 -0.30493,0.99731,0.38428
03/26/20 14:24:24.863180 -0.32324,0.91626,0.40308
03/26/20 14:24:24.872499 -0.28296,0.83740,0.48877
03/26/20 14:24:24.881558 -0.23096,0.71387,0.58936
03/26/20 14:24:24.890881 -0.18750,0.73096,0.63428
03/26/20 14:24:24.900204 -0.19824,0.76660,0.58447
03/26/20 14:24:24.909529 -0.19971,0.80322,0.54541
03/26/20 14:24:24.918850 -0.22314,0.70361,0.58960
03/26/20 14:24:24.928179 -0.22607,0.62354,0.64917
03/26/20 14:24:24.937510 -0.22412,0.55054,0.68262
03/26/20 14:24:24.947079 -0.20264,0.52295,0.70410
03/26/20 14:24:24.956404 -0.19971,0.53369,0.69458
03/26/20 14:24:24.965729 -0.18384,0.53711,0.70898
03/26/20 14:24:24.975048 -0.21973,0.49585,0.69946
03/26/20 14:24:24.984373 -0.19995,0.42114,0.76636
03/26/20 14:24:24.993696 -0.17236,0.42285,0.79663
03/26/20 14:24:25.003031 -0.17114,0.45166,0.77148
03/26/20 14:24:25.012114 -0.16479,0.47070,0.77417
03/26/20 14:24:25.021446 -0.18506,0.43018,0.78174
03/26/20 14:24:25.030771 -0.19824,0.31714,0.80273
03/26/20 14:24:25.036127 -0.21191,0.33960,0.78833
03/26/20 14:24:25.045223 -0.26563,0.30420,0.74829
03/26/20 14:24:25.054579 -0.27466,0.27588,0.72852
03/26/20 14:24:25.063931 -0.26514,0.28101,0.73926
03/26/20 14:24:25.073282 -0.27515,0.26416,0.72046
03/26/20 14:24:25.082636 -0.26172,0.24805,0.71167
03/26/20 14:24:25.091991 -0.27393,0.24463,0.71826
03/26/20 14:24:25.101337 -0.26416,0.23950,0.70898
03/26/20 14:24:25.110437 -0.25537,0.24854,0.70264
03/26/20 14:24:25.119785 -0.25049,0.24854,0.70117
03/26/20 14:24:25.125149 -0.23511,0.21558,0.72095
03/26/20 14:24:25.134481 -0.23511,0.21387,0.71680
03/26/20 14:24:25.143826 -0.23242,0.23486,0.69800
03/26/20 14:24:25.152916 -0.19702,0.22900,0.69727
03/26/20 14:24:25.162252 -0.18604,0.28369,0.70947
03/26/20 14:24:25.171574 -0.19507,0.27832,0.71094
03/26/20 14:24:25.180902 -0.21484,0.27002,0.71143
03/26/20 14:24:25.190235 -0.24048,0.30420,0.68506
03/26/20 14:24:25.199570 -0.28369,0.32104,0.64502
03/26/20 14:24:25.208899 -0.31909,0.30933,0.63086
03/26/20 14:24:25.218468 -0.32666,0.25903,0.60986
03/26/20 14:24:25.227812 -0.29639,0.22559,0.61401
03/26/20 14:24:25.237145 -0.24805,0.28467,0.60229
03/26/20 14:24:25.246470 -0.23926,0.40137,0.51514
03/26/20 14:24:25.255808 -0.24487,0.43457,0.44189
03/26/20 14:24:25.265144 -0.26611,0.43604,0.43140
03/26/20 14:24:25.274485 -0.29126,0.40479,0.41895
03/26/20 14:24:25.283566 -0.32495,0.39233,0.40063
03/26/20 14:24:25.292892 -0.32764,0.34448,0.42383
03/26/20 14:24:25.302225 -0.29590,0.51611,0.33862
03/26/20 14:24:25.307583 -0.29736,0.64966,0.27637
03/26/20 14:24:25.316652 -0.25830,0.76294,0.25757
03/26/20 14:24:25.325991 -0.20923,0.81470,0.26465
03/26/20 14:24:25.335327 -0.17017,0.91797,0.26318
03/26/20 14:24:25.344660 -0.11841,0.94873,0.31226
03/26/20 14:24:25.353989 -0.06494,1.11914,0.26538
03/26/20 14:24:25.363319 -0.12012,1.13477,0.22510
03/26/20 14:24:25.372641 -0.09863,1.06543,0.25586
03/26/20 14:24:25.381710 -0.11182,1.12183,0.21826
03/26/20 14:24:25.391008 -0.13599,1.18164,0.18750
03/26/20 14:24:25.396359 -0.15332,1.22461,0.16504
03/26/20 14:24:25.405668 -0.17383,1.24756,0.14600
03/26/20 14:24:25.414969 -0.18726,1.29370,0.10303
03/26/20 14:24:25.424013 -0.19653,1.20776,0.14233
03/26/20 14:24:25.433321 -0.14575,1.14551,0.17456
03/26/20 14:24:25.442635 -0.12646,1.04590,0.19043
03/26/20 14:24:25.451944 -0.09399,1.00732,0.19360
03/26/20 14:24:25.461250 -0.05347,1.11377,0.14966
03/26/20 14:24:25.470562 -0.07764,1.13916,0.08447
03/26/20 14:24:25.479628 -0.08105,1.08301,0.09839
03/26/20 14:24:25.484982 -0.06299,1.05615,0.10596
03/26/20 14:24:25.494299 -0.04028,1.08301,0.09180
03/26/20 14:24:25.503618 -0.01489,1.09253,0.08740
03/26/20 14:24:25.512941 0.01929,1.11133,0.10083
03/26/20 14:24:25.522011 0.04053,1.17212,0.08984
03/26/20 14:24:25.531332 0.05322,1.17725,0.08154
03/26/20 14:24:25.540655 0.09131,1.21411,0.07031
03/26/20 14:24:25.549984 0.12500,1.27490,0.03369
03/26/20 14:24:25.559313 0.14478,1.29834,0.02930
03/26/20 14:24:25.568632 0.18677,1.27979,0.06836
03/26/20 14:24:25.578432 0.18896,1.31934,0.04199
03/26/20 14:24:25.587502 0.11768,1.24829,0.01270
03/26/20 14:24:25.596830 0.09082,1.14404,0.01587
03/26/20 14:24:25.606150 0.06763,1.09033,0.02393
03/26/20 14:24:25.615469 0.07031,1.03491,0.03760
03/26/20 14:24:25.624783 0.10840,0.95996,0.06787
03/26/20 14:24:25.634113 0.16211,0.96021,0.06494
03/26/20 14:24:25.643440 0.19507,0.92163,0.07788
03/26/20 14:24:25.652515 0.23364,0.94165,0.06445
03/26/20 14:24:25.661841 0.22974,0.94849,0.04688
03/26/20 14:24:25.667192 0.22070,0.90698,0.04199
03/26/20 14:24:25.676514 0.19775,0.87036,0.05420
03/26/20 14:24:25.685587 0.19482,0.89355,0.05762
03/26/20 14:24:25.694914 0.19336,0.96045,0.04932
03/26/20 14:24:25.704239 0.19214,1.05347,0.04199
03/26/20 14:24:25.713564 0.21655,1.05688,0.05933
03/26/20 14:24:25.722900 0.22144,1.06689,0.07495
03/26/20 14:24:25.732233 0.29883,1.02686,0.10498
03/26/20 14:24:25.741571 0.28052,0.97363,0.13892
03/26/20 14:24:25.750652 0.29102,0.87402,0.16602
03/26/20 14:24:25.756006 0.29956,0.85010,0.15649
03/26/20 14:24:25.765345 0.30518,0.87085,0.08789
03/26/20 14:24:25.774677 0.28052,0.85205,0.06836
03/26/20 14:24:25.783758 0.26318,0.80957,0.09546
03/26/20 14:24:25.793087 0.21777,0.81396,0.10596
03/26/20 14:24:25.802412 0.19775,0.83276,0.10889
03/26/20 14:24:25.811731 0.20605,0.86328,0.13867
03/26/20 14:24:25.821047 0.22705,0.91089,0.14795
03/26/20 14:24:25.830364 0.22974,0.88184,0.15308
03/26/20 14:24:25.839680 0.20483,0.85229,0.16162
03/26/20 14:24:25.848742 0.20361,0.88770,0.14209
03/26/20 14:24:25.854088 0.17700,0.90601,0.13745
03/26/20 14:24:25.863398 0.15039,0.90576,0.13818
03/26/20 14:24:25.872713 0.12695,0.86426,0.14453
03/26/20 14:24:25.882031 0.11621,0.83228,0.14893
03/26/20 14:24:25.891106 0.12109,0.84033,0.14355
03/26/20 14:24:25.900431 0.10181,0.85132,0.12549
03/26/20 14:24:25.909752 0.10400,0.89941,0.10596
03/26/20 14:24:25.919085 0.11987,0.95068,0.12012
03/26/20 14:24:25.928415 0.14941,0.97241,0.12891
03/26/20 14:24:25.937740 0.15430,1.05273,0.13232
03/26/20 14:24:25.947546 0.16162,1.10352,0.13037
03/26/20 14:24:25.956633 0.18652,1.18677,0.10645
03/26/20 14:24:25.965961 0.18677,1.31104,0.07593
03/26/20 14:24:25.975290 0.16919,1.36670,0.04785
03/26/20 14:24:25.984613 0.13672,1.36450,0.05835
03/26/20 14:24:25.993938 0.13477,1.33545,0.06787
03/26/20 14:24:26.003265 0.13892,1.32397,0.06689
03/26/20 14:24:26.012592 0.14063,1.31738,0.05225
03/26/20 14:24:26.021669 0.17041,1.30688,0.02832
03/26/20 14:24:26.030998 0.20190,1.15723,0.06592
03/26/20 14:24:26.036358 0.23828,1.12842,0.07275
03/26/20 14:24:26.045687 0.24634,1.19092,0.04028
03/26/20 14:24:26.054760 0.27783,1.25415,-0.02393
03/26/20 14:24:26.064074 0.26758,1.27881,-0.03613
03/26/20 14:24:26.073389 0.29370,1.25098,-0.01831
03/26/20 14:24:26.082710 0.28564,1.28467,-0.02979
03/26/20 14:24:26.092035 0.30322,1.33276,-0.03320
03/26/20 14:24:26.101364 0.31494,1.39380,-0.02734
03/26/20 14:24:26.110683 0.35693,1.45435,0.01636
03/26/20 14:24:26.119749 0.37549,1.42041,0.05493
03/26/20 14:24:26.125101 0.36499,1.38110,0.07666
03/26/20 14:24:26.134422 0.37427,1.30371,0.09229
03/26/20 14:24:26.143747 0.37012,1.26807,0.09277
03/26/20 14:24:26.152821 0.37524,1.17188,0.08887
03/26/20 14:24:26.162153 0.35010,1.08691,0.08789
03/26/20 14:24:26.171495 0.37524,1.01733,0.09937
03/26/20 14:24:26.180828 0.41528,0.98828,0.12158
03/26/20 14:24:26.190157 0.38818,0.89404,0.11279
03/26/20 14:24:26.199480 0.38696,0.83740,0.11279
03/26/20 14:24:26.208811 0.37720,0.84180,0.11182
03/26/20 14:24:26.217882 0.38330,0.81055,0.14648
03/26/20 14:24:26.223232 0.37817,0.81152,0.15991
03/26/20 14:24:26.232544 0.37598,0.80664,0.14453
03/26/20 14:24:26.241867 0.38550,0.82959,0.11328
03/26/20 14:24:26.250946 0.36182,0.87402,0.10303
03/26/20 14:24:26.260284 0.28809,0.88794,0.03589
03/26/20 14:24:26.269627 0.38354,0.89307,0.12207
03/26/20 14:24:26.278961 0.42358,0.76758,0.25488
03/26/20 14:24:26.288284 0.53369,0.79077,0.25415
03/26/20 14:24:26.297621 0.57129,0.87109,0.17822
03/26/20 14:24:26.306955 0.53589,0.87524,0.15381
03/26/20 14:24:26.316767 0.56152,0.78247,0.21313
03/26/20 14:24:26.325842 0.59766,0.70361,0.26563
03/26/20 14:24:26.335167 0.61646,0.67896,0.24927
03/26/20 14:24:26.344496 0.58057,0.66040,0.19360
03/26/20 14:24:26.353827 0.53809,0.59570,0.19702
03/26/20 14:24:26.363163 0.54663,0.60889,0.19043
03/26/20 14:24:26.372509 1.01611,0.43579,0.10840
03/26/20 14:24:26.381849 1.17603,1.16870,0.80933
03/26/20 14:24:26.390953 1.17676,0.85498,0.83276
03/26/20 14:24:26.400303 0.80640,0.32129,0.88721
03/26/20 14:24:26.405664 0.56860,0.22949,0.83057
03/26/20 14:24:26.415010 0.42139,0.28564,0.45313
03/26/20 14:24:26.424112 0.35205,0.40210,0.34033
03/26/20 14:24:26.433464 0.34912,0.33423,0.35010
03/26/20 14:24:26.442814 0.40625,0.39185,0.35742
03/26/20 14:24:26.452150 0.26245,0.32471,0.25586
03/26/20 14:24:26.461489 0.29102,0.31006,0.26465
03/26/20 14:24:26.470823 0.29785,0.38452,0.25610
03/26/20 14:24:26.480165 0.30518,0.44873,0.19629
03/26/20 14:24:26.489254 0.28564,0.46875,0.16089
03/26/20 14:24:26.494612 0.28931,0.47949,0.19116
03/26/20 14:24:26.503956 0.35522,0.47290,0.21191
03/26/20 14:24:26.513298 0.37109,0.57813,0.20288
03/26/20 14:24:26.522388 0.45947,0.61646,0.23462
03/26/20 14:24:26.531727 0.57617,0.57300,0.44629
03/26/20 14:24:26.541065 0.71729,0.56836,0.56104
03/26/20 14:24:26.550404 0.79224,0.50220,0.75391
03/26/20 14:24:26.559740 0.91968,0.56226,0.73901
03/26/20 14:24:26.569073 0.86987,0.57324,0.61377
03/26/20 14:24:26.578403 0.85889,0.66602,0.52051
03/26/20 14:24:26.588230 0.84619,0.64844,0.43921
03/26/20 14:24:26.597328 0.85352,0.56763,0.40332
03/26/20 14:24:26.606674 0.85352,0.39844,0.29370
03/26/20 14:24:26.616022 0.73682,0.21997,0.16431
03/26/20 14:24:26.625381 0.77612,0.05664,0.11133
03/26/20 14:24:26.634733 0.81689,-0.02832,0.15649
03/26/20 14:24:26.644093 0.86133,-0.00879,0.19507
03/26/20 14:24:26.653450 0.87842,0.09302,0.17358
03/26/20 14:24:26.662556 0.87378,0.27637,0.07397
03/26/20 14:24:26.671907 0.81982,0.43213,-0.05591
03/26/20 14:24:26.681252 0.78589,0.51514,-0.17529
03/26/20 14:24:26.686613 0.79395,0.55591,-0.20605
03/26/20 14:24:26.695706 0.85889,0.62207,-0.25293
03/26/20 14:24:26.705046 0.84814,0.64136,-0.29297
03/26/20 14:24:26.714388 0.81665,0.61963,-0.34082
03/26/20 14:24:26.723721 0.79590,0.63135,-0.43848
03/26/20 14:24:26.733070 0.82690,0.69434,-0.51050
03/26/20 14:24:26.742418 0.80664,0.72461,-0.54932
03/26/20 14:24:26.751770 0.80615,0.75269,-0.58325
03/26/20 14:24:26.760874 0.82764,0.77954,-0.62500
03/26/20 14:24:26.770231 0.84180,0.81177,-0.66260
03/26/20 14:24:26.775602 0.86060,0.84229,-0.69727
03/26/20 14:24:26.784967 0.86914,0.90698,-0.73462
03/26/20 14:24:26.794081 0.88257,1.02856,-0.76587
03/26/20 14:24:26.803438 0.96509,1.17261,-0.82739
03/26/20 14:24:26.812794 1.07593,1.39697,-0.88428
03/26/20 14:24:26.822149 1.12207,1.67188,-0.96094
03/26/20 14:24:26.831486 1.08496,1.80322,-0.95630
03/26/20 14:24:26.840826 0.97217,1.89160,-0.88623
03/26/20 14:24:26.850168 0.86499,1.89258,-0.86621
03/26/20 14:24:26.859261 0.82397,1.73218,-0.84619
03/26/20 14:24:26.864618 0.81738,1.63037,-0.83472
03/26/20 14:24:26.873972 0.75293,1.48730,-0.85278
03/26/20 14:24:26.883326 0.75903,1.37183,-0.88135
03/26/20 14:24:26.892681 0.77759,1.31201,-0.89429
03/26/20 14:24:26.901783 0.79150,1.29004,-0.90186
03/26/20 14:24:26.911141 0.80811,1.23462,-0.91797
03/26/20 14:24:26.920492 0.69580,1.36768,-0.90186
03/26/20 14:24:26.929859 0.68945,1.34961,-0.91748
03/26/20 14:24:26.939217 0.69629,1.32349,-0.91650
03/26/20 14:24:26.948572 0.66748,1.30078,-0.89233
03/26/20 14:24:26.958391 0.66284,1.35596,-0.87720
03/26/20 14:24:26.967484 0.72778,1.30469,-0.82837
03/26/20 14:24:26.976816 0.67090,1.36548,-0.77563
03/26/20 14:24:26.986153 0.74316,1.40674,-0.71924
03/26/20 14:24:26.995487 0.73315,1.39771,-0.62695
03/26/20 14:24:27.004827 0.66406,1.38818,-0.56934
03/26/20 14:24:27.014160 0.63208,1.40698,-0.54395
03/26/20 14:24:27.023499 0.62622,1.36499,-0.51904
03/26/20 14:24:27.032585 0.62476,1.35352,-0.50635
03/26/20 14:24:27.041920 0.66235,1.30640,-0.45020
03/26/20 14:24:27.047274 0.70020,1.30029,-0.42725
03/26/20 14:24:27.056604 0.72192,1.32129,-0.38281
03/26/20 14:24:27.065687 0.72876,1.32471,-0.35669
03/26/20 14:24:27.075014 0.77173,1.35156,-0.32959
03/26/20 14:24:27.084330 0.82593,1.32446,-0.26855
03/26/20 14:24:27.093658 0.82373,1.28540,-0.16016
03/26/20 14:24:27.102989 0.84229,1.26172,-0.04980
03/26/20 14:24:27.112318 0.87378,1.22900,0.01343
03/26/20 14:24:27.121632 0.88477,1.20068,0.07666
03/26/20 14:24:27.130709 0.93311,1.24121,0.13867
03/26/20 14:24:27.136057 0.96509,1.24414,0.16504
03/26/20 14:24:27.145376 1.02441,1.21289,0.20410
03/26/20 14:24:27.154696 1.05811,1.16846,0.23926
03/26/20 14:24:27.164017 1.10132,1.14355,0.25830
03/26/20 14:24:27.173088 1.12231,1.14160,0.26196
03/26/20 14:24:27.182421 1.18359,1.14648,0.25977
03/26/20 14:24:27.191751 1.23730,1.18774,0.23877
03/26/20 14:24:27.201084 1.21216,1.16748,0.24561
03/26/20 14:24:27.210415 1.15576,1.11108,0.27734
03/26/20 14:24:27.219744 1.11401,1.06714,0.30127
03/26/20 14:24:27.229544 1.09888,1.02637,0.32861
03/26/20 14:24:27.238613 1.10669,0.98389,0.34521
03/26/20 14:24:27.247927 1.10522,0.89502,0.31812
03/26/20 14:24:27.257240 1.10278,0.78467,0.24609
03/26/20 14:24:27.266562 1.07617,0.79150,0.14868
03/26/20 14:24:27.275883 1.04590,0.81909,0.09253
03/26/20 14:24:27.285206 0.98096,0.88281,0.01538
03/26/20 14:24:27.294531 0.96704,0.89185,-0.05127
03/26/20 14:24:27.303602 0.97266,0.81421,-0.08057
03/26/20 14:24:27.312931 0.94189,0.80884,-0.07227
03/26/20 14:24:27.318287 0.92969,0.80371,-0.07275
03/26/20 14:24:27.327612 0.94971,0.79541,-0.07837
03/26/20 14:24:27.336681 0.95483,0.77222,-0.05029
03/26/20 14:24:27.346008 0.97974,0.72925,-0.01733
03/26/20 14:24:27.355335 0.96924,0.66675,0.00610
03/26/20 14:24:27.364660 0.96533,0.60791,0.02124
03/26/20 14:24:27.373985 0.92822,0.57568,0.00146
03/26/20 14:24:27.383320 0.89038,0.56250,-0.03613
03/26/20 14:24:27.392651 0.85352,0.54590,-0.07886
03/26/20 14:24:27.401716 0.83252,0.54126,-0.13452
03/26/20 14:24:27.407070 0.83496,0.54443,-0.16333
03/26/20 14:24:27.416386 0.92578,0.47705,-0.21143
03/26/20 14:24:27.425711 0.94189,0.43579,-0.24951
03/26/20 14:24:27.434778 0.86890,0.48877,-0.29810
03/26/20 14:24:27.444096 0.80664,0.54468,-0.33398
03/26/20 14:24:27.453409 0.74976,0.54541,-0.36914
03/26/20 14:24:27.462732 0.67065,0.45728,-0.39648
03/26/20 14:24:27.472054 0.65601,0.39966,-0.45020
03/26/20 14:24:27.481388 0.74780,0.40015,-0.49731
03/26/20 14:24:27.490707 0.72412,0.43237,-0.47681
03/26/20 14:24:27.500271 0.69385,0.41821,-0.43799
03/26/20 14:24:27.509605 0.71924,0.39380,-0.42114
03/26/20 14:24:27.518946 0.70020,0.36719,-0.41821
03/26/20 14:24:27.528282 0.66943,0.29639,-0.41602
03/26/20 14:24:27.537628 0.64014,0.25171,-0.43579
03/26/20 14:24:27.546974 0.63672,0.24707,-0.44775
03/26/20 14:24:27.556318 0.64355,0.25977,-0.46484
03/26/20 14:24:27.565407 0.68042,0.32275,-0.46313
03/26/20 14:24:27.574747 0.71875,0.34937,-0.42773
03/26/20 14:24:27.584133 0.74829,0.36963,-0.37476
03/26/20 14:24:27.589497 0.74951,0.37695,-0.34521
03/26/20 14:24:27.598820 0.75439,0.40723,-0.31348
03/26/20 14:24:27.607904 0.74902,0.42676,-0.29346
03/26/20 14:24:27.617237 0.75293,0.48218,-0.27856
03/26/20 14:24:27.626558 0.75879,0.54272,-0.26953
03/26/20 14:24:27.635864 0.76587,0.57397,-0.27930
03/26/20 14:24:27.645168 0.79907,0.64893,-0.30664
03/26/20 14:24:27.654484 0.77808,0.67236,-0.31714
03/26/20 14:24:27.663813 0.75854,0.67773,-0.30054
03/26/20 14:24:27.672888 0.73047,0.65576,-0.29761
03/26/20 14:24:27.682219 0.70654,0.67871,-0.31738
03/26/20 14:24:27.687576 0.69507,0.69922,-0.32275
03/26/20 14:24:27.696909 0.70605,0.73242,-0.34009
03/26/20 14:24:27.705980 0.74121,0.75049,-0.34717
03/26/20 14:24:27.715313 0.78809,0.72656,-0.34326
03/26/20 14:24:27.724638 0.82666,0.67505,-0.35596
03/26/20 14:24:27.733971 0.84253,0.67285,-0.34229
03/26/20 14:24:27.743296 0.87939,0.64307,-0.33472
03/26/20 14:24:27.752642 0.88257,0.60547,-0.33594
03/26/20 14:24:27.761986 0.88818,0.57520,-0.34717
03/26/20 14:24:27.771074 0.87720,0.54736,-0.35425
03/26/20 14:24:27.776432 0.88916,0.54175,-0.35645
03/26/20 14:24:27.785774 0.88135,0.48853,-0.38062
03/26/20 14:24:27.795118 0.84473,0.48486,-0.41895
03/26/20 14:24:27.804207 0.77612,0.55981,-0.44971
03/26/20 14:24:27.813526 0.74951,0.60791,-0.44873
03/26/20 14:24:27.822853 0.77100,0.63550,-0.44482
03/26/20 14:24:27.832176 0.82568,0.68286,-0.44775
03/26/20 14:24:27.841505 0.94995,0.69702,-0.43359
03/26/20 14:24:27.850843 1.07983,0.64502,-0.39673
03/26/20 14:24:27.860189 1.18457,0.53662,-0.37671
03/26/20 14:24:27.870012 1.21680,0.43457,-0.34131
03/26/20 14:24:27.879108 1.20483,0.35840,-0.28345
03/26/20 14:24:27.888441 1.15674,0.26709,-0.23022
03/26/20 14:24:27.897783 1.09180,0.20215,-0.17847
03/26/20 14:24:27.907126 0.95532,0.16064,-0.14136
03/26/20 14:24:27.916458 0.92358,0.41211,-0.12842
03/26/20 14:24:27.925785 0.84204,0.40674,-0.13794
03/26/20 14:24:27.935104 0.79175,0.49805,-0.18481
03/26/20 14:24:27.944174 0.72046,0.54736,-0.21802
03/26/20 14:24:27.953505 0.68848,0.60059,-0.22363
03/26/20 14:24:27.958853 0.67627,0.62939,-0.22705
03/26/20 14:24:27.968186 0.67969,0.67822,-0.21826
03/26/20 14:24:27.977266 0.67065,0.66260,-0.21289
03/26/20 14:24:27.986595 0.66113,0.63037,-0.22266
03/26/20 14:24:27.995926 0.65430,0.59814,-0.23242
03/26/20 14:24:28.005262 0.64624,0.54590,-0.23804
03/26/20 14:24:28.014599 0.64990,0.47510,-0.23682
03/26/20 14:24:28.023918 0.65381,0.42871,-0.24170
03/26/20 14:24:28.033228 0.65063,0.39404,-0.23413
03/26/20 14:24:28.042299 0.66138,0.36450,-0.23291
03/26/20 14:24:28.047651 0.66821,0.35010,-0.22705
03/26/20 14:24:28.056971 0.69629,0.31201,-0.21338
03/26/20 14:24:28.066277 0.73950,0.29297,-0.19312
03/26/20 14:24:28.075338 0.75391,0.29834,-0.16553
03/26/20 14:24:28.084644 0.75122,0.30200,-0.13867
03/26/20 14:24:28.093960 0.74097,0.28809,-0.11304
03/26/20 14:24:28.103268 0.71826,0.29053,-0.09668
03/26/20 14:24:28.112585 0.68481,0.31274,-0.09277
03/26/20 14:24:28.121906 0.65869,0.35303,-0.09570
03/26/20 14:24:28.131235 0.64355,0.36963,-0.10010
03/26/20 14:24:28.140793 0.63354,0.37061,-0.10645
03/26/20 14:24:28.150116 0.62207,0.40039,-0.12158
03/26/20 14:24:28.159443 0.59448,0.43945,-0.13257
03/26/20 14:24:28.168764 0.55322,0.49219,-0.14795
03/26/20 14:24:28.178082 0.52710,0.54492,-0.14746
03/26/20 14:24:28.187405 0.52271,0.56274,-0.15234
03/26/20 14:24:28.196732 0.54346,0.56763,-0.16089
03/26/20 14:24:28.205809 0.56274,0.57446,-0.17749
03/26/20 14:24:28.215134 0.61792,0.55127,-0.20264
03/26/20 14:24:28.224442 0.67529,0.51465,-0.20068
03/26/20 14:24:28.229792 0.69409,0.49658,-0.19312
03/26/20 14:24:28.238848 0.73608,0.46582,-0.17529
03/26/20 14:24:28.248159 0.76807,0.46387,-0.15967
03/26/20 14:24:28.257479 0.79736,0.44946,-0.15869
03/26/20 14:24:28.266796 0.82129,0.43970,-0.15649
03/26/20 14:24:28.276112 0.83545,0.43530,-0.16260
03/26/20 14:24:28.285425 0.84473,0.46191,-0.16992
03/26/20 14:24:28.294739 0.85791,0.50806,-0.17334
03/26/20 14:24:28.303801 0.84595,0.56226,-0.17896
03/26/20 14:24:28.313120 0.83105,0.60400,-0.21045
03/26/20 14:24:28.318472 0.83032,0.63110,-0.22559
03/26/20 14:24:28.327799 0.82178,0.68335,-0.23413
03/26/20 14:24:28.337124 0.82935,0.72217,-0.24756
03/26/20 14:24:28.346199 0.83569,0.73535,-0.25903
03/26/20 14:24:28.355516 0.84473,0.77344,-0.27100
03/26/20 14:24:28.364843 0.85425,0.79248,-0.26904
03/26/20 14:24:28.374170 0.88940,0.79541,-0.27002
03/26/20 14:24:28.383503 0.94067,0.80371,-0.25879
03/26/20 14:24:28.392818 1.00879,0.80713,-0.26758
03/26/20 14:24:28.401888 1.07495,0.79004,-0.27832
03/26/20 14:24:28.407240 1.10278,0.78662,-0.28076
03/26/20 14:24:28.416555 1.11304,0.79175,-0.27393
03/26/20 14:24:28.425869 1.09595,0.81641,-0.26855
03/26/20 14:24:28.435183 1.07617,0.85083,-0.26050
03/26/20 14:24:28.444246 1.06128,0.88135,-0.25000
03/26/20 14:24:28.453560 1.04370,0.88672,-0.21362
03/26/20 14:24:28.462862 1.00537,0.87183,-0.17578
03/26/20 14:24:28.472170 0.98145,0.88086,-0.16455
03/26/20 14:24:28.481480 0.97559,0.88623,-0.16357
03/26/20 14:24:28.490791 0.99658,0.90991,-0.17529
03/26/20 14:24:28.500578 1.02441,0.90576,-0.19043
03/26/20 14:24:28.509638 1.03223,0.90894,-0.23193
03/26/20 14:24:28.518948 0.99878,0.90430,-0.27588
03/26/20 14:24:28.528248 0.97827,0.89453,-0.31006
03/26/20 14:24:28.537546 0.95313,0.88184,-0.33765
03/26/20 14:24:28.546852 0.94775,0.85962,-0.38062
03/26/20 14:24:28.556162 0.95117,0.83008,-0.39600
03/26/20 14:24:28.565462 0.95410,0.78589,-0.39111
03/26/20 14:24:28.574507 0.93970,0.74170,-0.37061
03/26/20 14:24:28.583809 0.92700,0.69507,-0.36523
03/26/20 14:24:28.589153 0.91528,0.69165,-0.34961
03/26/20 14:24:28.598461 0.89600,0.69409,-0.32324
03/26/20 14:24:28.607513 0.88525,0.70850,-0.28906
03/26/20 14:24:28.616818 0.88110,0.68799,-0.26855
03/26/20 14:24:28.626120 0.89209,0.66602,-0.25635
03/26/20 14:24:28.635422 0.89014,0.63501,-0.23267
03/26/20 14:24:28.644720 0.86841,0.61548,-0.21753
03/26/20 14:24:28.654022 0.84790,0.60889,-0.23364
03/26/20 14:24:28.663334 0.82397,0.61670,-0.26123
03/26/20 14:24:28.672396 0.79590,0.62402,-0.27100
03/26/20 14:24:28.677738 0.77246,0.61133,-0.27710
03/26/20 14:24:28.687052 0.75366,0.59155,-0.28906
03/26/20 14:24:28.696367 0.71606,0.57275,-0.32153
03/26/20 14:24:28.705442 0.67578,0.56689,-0.33887
03/26/20 14:24:28.714758 0.65283,0.56885,-0.35791
03/26/20 14:24:28.724079 0.63599,0.56250,-0.36426
03/26/20 14:24:28.733398 0.62793,0.54688,-0.36328
03/26/20 14:24:28.742720 0.61426,0.53027,-0.36279
03/26/20 14:24:28.752029 0.60962,0.49609,-0.33936
03/26/20 14:24:28.761353 0.61084,0.47681,-0.31812
03/26/20 14:24:28.770920 0.61670,0.42212,-0.30273
03/26/20 14:24:28.780258 0.62207,0.36719,-0.29419
03/26/20 14:24:28.789593 0.62598,0.33398,-0.28467
03/26/20 14:24:28.798937 0.62109,0.30054,-0.26514
03/26/20 14:24:28.808283 0.62744,0.26660,-0.25635
03/26/20 14:24:28.817627 0.62964,0.26270,-0.24512
03/26/20 14:24:28.826960 0.62988,0.30078,-0.21924
03/26/20 14:24:28.836052 0.64380,0.32959,-0.20752
03/26/20 14:24:28.845394 0.67236,0.35400,-0.18091
03/26/20 14:24:28.854740 0.70264,0.39600,-0.15161
03/26/20 14:24:28.860100 0.71191,0.41626,-0.14600
03/26/20 14:24:28.869448 0.74805,0.45752,-0.12891
03/26/20 14:24:28.878542 0.77808,0.49243,-0.11401
03/26/20 14:24:28.887886 0.81763,0.51465,-0.09473
03/26/20 14:24:28.897228 0.86670,0.49438,-0.08447
03/26/20 14:24:28.906570 0.90186,0.48340,-0.07324
03/26/20 14:24:28.915918 0.92603,0.47900,-0.04614
03/26/20 14:24:28.925261 0.92041,0.48120,-0.03809
03/26/20 14:24:28.934586 0.89478,0.49341,-0.02490
03/26/20 14:24:28.943661 0.85986,0.52490,-0.02222
03/26/20 14:24:28.949017 0.86182,0.54395,-0.02124
03/26/20 14:24:28.958347 0.90479,0.57495,-0.04834
03/26/20 14:24:28.967680 0.98877,0.61230,-0.08789
03/26/20 14:24:28.976763 1.05225,0.61572,-0.09570
03/26/20 14:24:28.986103 1.05762,0.55225,-0.09399
03/26/20 14:24:28.995441 1.03882,0.45190,-0.10889
03/26/20 14:24:29.004772 0.96924,0.42285,-0.14209
03/26/20 14:24:29.014112 0.91846,0.47949,-0.16455
03/26/20 14:24:29.023453 0.88867,0.55566,-0.17139
03/26/20 14:24:29.032793 0.82593,0.65210,-0.19897
03/26/20 14:24:29.042360 0.83911,0.72217,-0.20264
03/26/20 14:24:29.051693 0.89795,0.70361,-0.12842
03/26/20 14:24:29.061018 0.94800,0.67578,-0.03223
03/26/20 14:24:29.070347 0.96948,0.68262,0.03589
03/26/20 14:24:29.079666 0.99634,0.65747,0.11084
03/26/20 14:24:29.088991 1.02026,0.62842,0.17041
03/26/20 14:24:29.098312 1.03589,0.62256,0.19629
03/26/20 14:24:29.107391 1.04126,0.61865,0.20313
03/26/20 14:24:29.116714 1.03027,0.59888,0.20801
03/26/20 14:24:29.126053 1.01978,0.57397,0.20703
03/26/20 14:24:29.131401 1.00757,0.54883,0.20557
03/26/20 14:24:29.140484 0.97949,0.50195,0.20776
03/26/20 14:24:29.149809 0.95337,0.46411,0.19702
03/26/20 14:24:29.159134 0.91699,0.42529,0.25806
03/26/20 14:24:29.168453 0.90454,0.37476,0.25342
03/26/20 14:24:29.177786 0.87695,0.32422,0.21606
03/26/20 14:24:29.187101 0.80713,0.38965,0.24243
03/26/20 14:24:29.196425 0.77759,0.42651,0.23779
03/26/20 14:24:29.205496 0.75415,0.48169,0.24072
03/26/20 14:24:29.214823 0.73926,0.49463,0.24951
03/26/20 14:24:29.224138 0.71753,0.52295,0.23389
03/26/20 14:24:29.229492 0.69385,0.53760,0.22095
03/26/20 14:24:29.238810 0.67603,0.54004,0.19336
03/26/20 14:24:29.247877 0.64233,0.55347,0.17676
03/26/20 14:24:29.257202 0.58789,0.55762,0.15161
03/26/20 14:24:29.266520 0.55542,0.56396,0.12598
03/26/20 14:24:29.275835 0.51538,0.56885,0.12988
03/26/20 14:24:29.285158 0.48633,0.53711,0.12793
03/26/20 14:24:29.294478 0.47314,0.52832,0.13989
03/26/20 14:24:29.303553 0.46069,0.49487,0.15234
03/26/20 14:24:29.312870 0.45508,0.46924,0.16455
03/26/20 14:24:29.318220 0.45142,0.46973,0.16455
03/26/20 14:24:29.327534 0.48901,0.43530,0.18286
03/26/20 14:24:29.336857 0.49902,0.47705,0.19385
03/26/20 14:24:29.345934 0.54468,0.42163,0.22705
03/26/20 14:24:29.355274 0.62207,0.43091,0.19409
03/26/20 14:24:29.364609 0.60718,0.47632,0.30859
03/26/20 14:24:29.373945 0.63916,0.52051,0.28833
03/26/20 14:24:29.383270 0.65405,0.57495,0.25586
03/26/20 14:24:29.392595 0.67212,0.61255,0.23291
03/26/20 14:24:29.401918 0.66357,0.67090,0.20190
03/26/20 14:24:29.411474 0.63867,0.70947,0.16797
03/26/20 14:24:29.420790 0.60547,0.74512,0.16113
03/26/20 14:24:29.430117 0.56787,0.75854,0.16943
03/26/20 14:24:29.439446 0.54395,0.75439,0.15747
03/26/20 14:24:29.448782 0.52148,0.75024,0.13672
03/26/20 14:24:29.458105 0.47852,0.76172,0.12183
03/26/20 14:24:29.467434 0.44678,0.78564,0.10083
03/26/20 14:24:29.476505 0.41602,0.82764,0.08838
03/26/20 14:24:29.485840 0.45313,0.87256,0.06641
03/26/20 14:24:29.495167 0.38770,0.88159,0.08398
03/26/20 14:24:29.500526 0.42407,0.90698,0.05273
03/26/20 14:24:29.509613 0.41260,0.90186,0.01489
03/26/20 14:24:29.518950 0.41284,0.88721,-0.03809
03/26/20 14:24:29.528278 0.40894,0.89526,-0.06299
03/26/20 14:24:29.537619 0.46533,0.81592,-0.05542
03/26/20 14:24:29.546949 0.50635,0.90527,-0.09131
03/26/20 14:24:29.556288 0.56519,0.95386,-0.07544
03/26/20 14:24:29.565617 0.64502,1.02710,-0.04053
03/26/20 14:24:29.574705 0.73047,1.08301,0.00732
03/26/20 14:24:29.584089 0.80713,1.14209,0.01587
03/26/20 14:24:29.589447 0.79443,1.14258,0.04248
03/26/20 14:24:29.598789 0.85889,1.19287,0.05713
03/26/20 14:24:29.608122 0.83545,1.23926,0.07666
03/26/20 14:24:29.617209 0.80469,1.25317,0.07959
03/26/20 14:24:29.626537 0.74097,1.27100,0.06689
03/26/20 14:24:29.635876 0.64966,1.24878,0.05713
03/26/20 14:24:29.645205 0.57397,1.18799,0.05835
03/26/20 14:24:29.654543 0.52441,1.10400,0.05933
03/26/20 14:24:29.663872 0.52026,1.04199,0.03711
03/26/20 14:24:29.673210 0.53027,0.96997,-0.02734
03/26/20 14:24:29.682293 0.54541,0.93506,-0.05469
03/26/20 14:24:29.687649 0.55176,0.92676,-0.05762
03/26/20 14:24:29.696989 0.54077,0.90527,-0.04541
03/26/20 14:24:29.706324 0.53906,0.89429,-0.03687
03/26/20 14:24:29.715406 0.54712,0.91333,0.02075
03/26/20 14:24:29.724745 0.56885,0.93237,0.04932
03/26/20 14:24:29.734074 0.59766,0.89575,0.06177
03/26/20 14:24:29.743414 0.60645,0.82593,0.07275
03/26/20 14:24:29.752750 0.58057,0.75903,0.06055
03/26/20 14:24:29.762093 0.56177,0.71021,0.03906
03/26/20 14:24:29.771435 0.53442,0.69678,0.02002
03/26/20 14:24:29.780998 0.53320,0.69263,-0.02539
03/26/20 14:24:29.790323 0.52905,0.66040,-0.04492
03/26/20 14:24:29.799648 0.49780,0.64209,-0.05078
03/26/20 14:24:29.808981 0.47803,0.61865,-0.04980
03/26/20 14:24:29.818317 0.46899,0.61719,-0.02979
03/26/20 14:24:29.827654 0.45508,0.62598,-0.00879
03/26/20 14:24:29.836977 0.44165,0.61792,0.00464
03/26/20 14:24:29.846069 0.41797,0.57983,0.01636
03/26/20 14:24:29.855406 0.40625,0.52539,0.04761
03/26/20 14:24:29.864731 0.38086,0.48389,0.07959
03/26/20 14:24:29.870085 0.39868,0.47852,0.06982
03/26/20 14:24:29.879156 0.41431,0.48022,0.06641
03/26/20 14:24:29.888474 0.40771,0.50806,0.06152
03/26/20 14:24:29.897797 0.41553,0.56445,0.04785
03/26/20 14:24:29.907120 0.45581,0.63623,0.03369
03/26/20 14:24:29.916452 0.46289,0.68262,0.04175
03/26/20 14:24:29.925777 0.48242,0.69751,0.04541
03/26/20 14:24:29.935101 0.48608,0.68164,0.04688
03/26/20 14:24:29.944168 0.51514,0.67114,0.03247
03/26/20 14:24:29.953506 0.52490,0.68652,-0.02271
03/26/20 14:24:29.958864 0.51514,0.68555,-0.03027
03/26/20 14:24:29.968195 0.51758,0.70361,-0.04150
03/26/20 14:24:29.977533 0.51025,0.63354,-0.00879
03/26/20 14:24:29.986622 0.56226,0.59155,0.00244
03/26/20 14:24:29.995960 0.61206,0.60034,-0.01563
03/26/20 14:24:30.005301 0.62744,0.61914,-0.03711
03/26/20 14:24:30.014637 0.66846,0.64307,-0.05273
03/26/20 14:24:30.023975 0.68677,0.67310,-0.03540
03/26/20 14:24:30.033306 0.70044,0.73218,-0.01929
03/26/20 14:24:30.042641 0.75537,0.80469,-0.04102
03/26/20 14:24:30.052208 0.83447,0.85693,-0.06323
03/26/20 14:24:30.061544 0.84668,0.82764,-0.08789
03/26/20 14:24:30.070875 0.82446,0.76636,-0.12598
03/26/20 14:24:30.080212 0.76440,0.71362,-0.18872
03/26/20 14:24:30.089546 0.68774,0.66602,-0.23389
03/26/20 14:24:30.098877 0.61401,0.61597,-0.25537
03/26/20 14:24:30.108204 0.57056,0.62256,-0.25806
03/26/20 14:24:30.117285 0.56201,0.65649,-0.25464
03/26/20 14:24:30.126610 0.59570,0.72388,-0.23315
03/26/20 14:24:30.135944 0.64893,0.78198,-0.18237
03/26/20 14:24:30.141294 0.68823,0.80688,-0.15894
03/26/20 14:24:30.150379 0.73169,0.85034,-0.09839
03/26/20 14:24:30.159712 0.72510,0.85352,-0.07764
03/26/20 14:24:30.169045 0.70947,0.84229,-0.13623
03/26/20 14:24:30.178379 0.70313,0.86108,-0.14233
03/26/20 14:24:30.187716 0.67554,0.82153,-0.16016
03/26/20 14:24:30.197052 0.65112,0.78662,-0.21582
03/26/20 14:24:30.206394 0.62793,0.76660,-0.25464
03/26/20 14:24:30.215487 0.62988,0.76123,-0.25635
03/26/20 14:24:30.224825 0.67480,0.74268,-0.25952
03/26/20 14:24:30.230179 0.70532,0.73291,-0.26807
03/26/20 14:24:30.239515 0.75024,0.69751,-0.26953
03/26/20 14:24:30.248600 0.75684,0.65039,-0.21191
03/26/20 14:24:30.257936 0.75854,0.62305,-0.16650
03/26/20 14:24:30.267258 0.75220,0.62744,-0.12842
03/26/20 14:24:30.276590 0.74243,0.64404,-0.10034
03/26/20 14:24:30.285912 0.73022,0.65723,-0.07080
03/26/20 14:24:30.295242 0.70654,0.67529,-0.04980
03/26/20 14:24:30.304571 0.68359,0.71094,-0.05420
03/26/20 14:24:30.313646 0.66333,0.72461,-0.04785
03/26/20 14:24:30.318991 0.66504,0.73389,-0.05176
03/26/20 14:24:30.328320 0.67725,0.75708,-0.04102
03/26/20 14:24:30.337652 0.69165,0.77441,-0.03613
03/26/20 14:24:30.346987 0.71094,0.80518,-0.03125
03/26/20 14:24:30.356050 0.71802,0.79468,-0.01563
03/26/20 14:24:30.365370 0.73853,0.77197,-0.00635
03/26/20 14:24:30.374693 0.73633,0.74512,-0.02637
03/26/20 14:24:30.384012 0.71362,0.70605,-0.03613
03/26/20 14:24:30.393332 0.68848,0.68164,-0.04834
03/26/20 14:24:30.402664 0.66968,0.65820,-0.06421
03/26/20 14:24:30.412472 0.64941,0.65820,-0.07568
03/26/20 14:24:30.421551 0.64404,0.68140,-0.05029
03/26/20 14:24:30.430872 0.58618,0.74561,-0.01782
03/26/20 14:24:30.440201 0.60059,0.67065,0.10791
03/26/20 14:24:30.449530 0.66406,0.76514,0.06982
03/26/20 14:24:30.458843 0.66724,0.81592,0.10522
03/26/20 14:24:30.468166 0.72168,0.88281,0.15845
03/26/20 14:24:30.477486 0.74731,0.90527,0.19482
03/26/20 14:24:30.486555 0.81274,0.95728,0.21045
03/26/20 14:24:30.495871 0.75537,0.88379,0.17139
03/26/20 14:24:30.501227 0.71094,0.79541,0.21655
03/26/20 14:24:30.510550 0.68848,0.69312,0.24316
03/26/20 14:24:30.519627 0.69507,0.67383,0.16187
03/26/20 14:24:30.528940 0.63428,0.62720,0.16650
03/26/20 14:24:30.538261 0.63818,0.68140,0.12695
03/26/20 14:24:30.547571 0.61694,0.73120,0.10986
03/26/20 14:24:30.556902 0.58691,0.77173,0.10376
03/26/20 14:24:30.566219 0.57617,0.82422,0.11670
03/26/20 14:24:30.575556 0.54395,0.87793,0.14697
03/26/20 14:24:30.584675 0.51245,0.96265,0.16431
03/26/20 14:24:30.594002 0.49805,1.05591,0.17578
03/26/20 14:24:30.599352 0.50879,1.09302,0.17163
03/26/20 14:24:30.608669 0.51270,1.11597,0.14746
03/26/20 14:24:30.617743 0.48169,1.07910,0.10107
03/26/20 14:24:30.627068 0.46191,1.05518,0.03857
03/26/20 14:24:30.636387 0.46753,1.08203,-0.03369
03/26/20 14:24:30.645718 0.48022,1.14355,-0.05566
03/26/20 14:24:30.655050 0.49365,1.20874,-0.07275
03/26/20 14:24:30.664379 0.52246,1.31592,-0.06738
03/26/20 14:24:30.673712 0.57739,1.38281,-0.03320
03/26/20 14:24:30.682777 0.71582,1.39185,-0.02490
03/26/20 14:24:30.688135 0.63232,1.35791,0.04224
03/26/20 14:24:30.697460 0.73169,1.32983,0.02539
03/26/20 14:24:30.706781 0.74536,1.28467,-0.01953
03/26/20 14:24:30.716101 0.76758,1.26367,-0.05737
03/26/20 14:24:30.725180 0.81421,1.26416,-0.11450
03/26/20 14:24:30.734509 0.83740,1.25171,-0.15381
03/26/20 14:24:30.743836 0.83618,1.19507,-0.18506
03/26/20 14:24:30.753159 0.81348,1.12549,-0.21094
03/26/20 14:24:30.762486 0.79810,1.07056,-0.22900
03/26/20 14:24:30.771805 0.76318,1.00024,-0.26270
03/26/20 14:24:30.781611 0.71680,0.94165,-0.28101
03/26/20 14:24:30.790684 0.67334,0.90234,-0.28906
03/26/20 14:24:30.800015 0.62744,0.88525,-0.30615
03/26/20 14:24:30.809343 0.60083,0.87988,-0.30322
03/26/20 14:24:30.818670 0.58032,0.86157,-0.28711
03/26/20 14:24:30.827995 0.56909,0.83276,-0.27588
03/26/20 14:24:30.837324 0.57642,0.77686,-0.25439
03/26/20 14:24:30.846657 0.55640,0.73657,-0.23462
03/26/20 14:24:30.855740 0.54688,0.68457,-0.21802
03/26/20 14:24:30.865070 0.54297,0.62598,-0.22314
03/26/20 14:24:30.870428 0.55078,0.60059,-0.21729
03/26/20 14:24:30.879768 0.53809,0.58276,-0.23438
03/26/20 14:24:30.888859 0.53809,0.54492,-0.26660
03/26/20 14:24:30.898193 0.52979,0.49683,-0.30713
03/26/20 14:24:30.907534 0.50732,0.47144,-0.33008
03/26/20 14:24:30.916880 0.48169,0.45117,-0.32666
03/26/20 14:24:30.926226 0.44580,0.42725,-0.31616
03/26/20 14:24:30.935568 0.39966,0.39380,-0.29761
03/26/20 14:24:30.944914 0.35449,0.35107,-0.29297
03/26/20 14:24:30.954004 0.31323,0.32715,-0.26660
03/26/20 14:24:30.959366 0.29785,0.32568,-0.25244
03/26/20 14:24:30.968695 0.30762,0.33008,-0.21631
03/26/20 14:24:30.978033 0.35010,0.34814,-0.20557
03/26/20 14:24:30.987127 0.37183,0.36279,-0.16284
03/26/20 14:24:30.996468 0.38672,0.36133,-0.13525
03/26/20 14:24:31.005802 0.41187,0.37451,-0.11646
03/26/20 14:24:31.015148 0.46777,0.37427,-0.12549
03/26/20 14:24:31.024490 0.49805,0.38818,-0.10498
03/26/20 14:24:31.033829 0.53052,0.37671,-0.08154
03/26/20 14:24:31.043158 0.55811,0.36401,-0.09033
03/26/20 14:24:31.052977 0.58984,0.36768,-0.11401
03/26/20 14:24:31.062061 0.63110,0.38428,-0.12549
03/26/20 14:24:31.071400 0.66138,0.41675,-0.14404
03/26/20 14:24:31.080727 0.70947,0.45532,-0.17139
03/26/20 14:24:31.090057 0.75757,0.49438,-0.19946
03/26/20 14:24:31.099386 0.78442,0.50830,-0.21484
03/26/20 14:24:31.108717 0.83105,0.49976,-0.22192
03/26/20 14:24:31.118038 0.87109,0.48242,-0.23364
03/26/20 14:24:31.127121 0.88354,0.49951,-0.24561
03/26/20 14:24:31.136450 0.87329,0.54541,-0.25146
03/26/20 14:24:31.141802 0.86670,0.57178,-0.25464
03/26/20 14:24:31.151125 0.83276,0.63013,-0.25049
03/26/20 14:24:31.160200 0.80664,0.68481,-0.24561
03/26/20 14:24:31.169527 0.82983,0.75708,-0.25415
03/26/20 14:24:31.178850 0.84961,0.82715,-0.28809
03/26/20 14:24:31.188177 0.85889,0.88379,-0.32471
03/26/20 14:24:31.197506 0.85693,0.89014,-0.32617
03/26/20 14:24:31.206837 0.86523,0.86011,-0.31104
03/26/20 14:24:31.216167 0.87329,0.80859,-0.27417
03/26/20 14:24:31.225250 0.87842,0.77905,-0.24170
03/26/20 14:24:31.230612 0.87158,0.76855,-0.22388
03/26/20 14:24:31.239944 0.85278,0.76978,-0.19189
03/26/20 14:24:31.249271 0.84985,0.77075,-0.17090
03/26/20 14:24:31.258343 0.85132,0.75830,-0.16455
03/26/20 14:24:31.267668 0.83740,0.76270,-0.17749
03/26/20 14:24:31.276995 0.80859,0.77734,-0.19775
03/26/20 14:24:31.286327 0.76440,0.79492,-0.23901
03/26/20 14:24:31.295652 0.71729,0.82910,-0.26758
03/26/20 14:24:31.304977 0.67676,0.84229,-0.29004
03/26/20 14:24:31.314306 0.65015,0.84473,-0.30762
03/26/20 14:24:31.323872 0.62305,0.83057,-0.32715
03/26/20 14:24:31.333193 0.60132,0.82861,-0.33984
03/26/20 14:24:31.342522 0.60425,0.82422,-0.31934
03/26/20 14:24:31.351858 0.61938,0.81885,-0.26709
03/26/20 14:24:31.361198 0.62598,0.81616,-0.23901
03/26/20 14:24:31.370539 0.64063,0.82080,-0.21289
03/26/20 14:24:31.379881 0.66040,0.83447,-0.17725
03/26/20 14:24:31.388958 0.66895,0.82935,-0.14478
03/26/20 14:24:31.398289 0.65674,0.81494,-0.12256
03/26/20 14:24:31.407614 0.64575,0.79077,-0.10278
03/26/20 14:24:31.412968 0.63257,0.77466,-0.10376
03/26/20 14:24:31.422295 0.60889,0.74512,-0.10498
03/26/20 14:24:31.431370 0.59033,0.71021,-0.11572
03/26/20 14:24:31.440683 0.58521,0.69263,-0.13452
03/26/20 14:24:31.450003 0.57520,0.66797,-0.14331
03/26/20 14:24:31.459322 0.56299,0.62134,-0.15088
03/26/20 14:24:31.468645 0.53979,0.58032,-0.15479
03/26/20 14:24:31.477964 0.53833,0.56543,-0.16235
03/26/20 14:24:31.487040 0.53711,0.55615,-0.15405
03/26/20 14:24:31.496367 0.53662,0.55688,-0.14063
03/26/20 14:24:31.501715 0.53076,0.54541,-0.13794
03/26/20 14:24:31.511036 0.51709,0.53247,-0.12988
03/26/20 14:24:31.520353 0.49243,0.53687,-0.11963
03/26/20 14:24:31.529421 0.48047,0.55347,-0.10742
03/26/20 14:24:31.538738 0.47852,0.56909,-0.10596
03/26/20 14:24:31.548052 0.48389,0.59326,-0.09644
03/26/20 14:24:31.557381 0.49902,0.59668,-0.09570
03/26/20 14:24:31.566704 0.53198,0.61597,-0.09473
03/26/20 14:24:31.576025 0.55542,0.63452,-0.07471
03/26/20 14:24:31.585342 0.56885,0.64258,-0.06079
03/26/20 14:24:31.594906 0.57715,0.66431,-0.05127
03/26/20 14:24:31.604240 0.60767,0.68311,-0.04980
03/26/20 14:24:31.613577 0.62085,0.68359,-0.07031
03/26/20 14:24:31.622902 0.61597,0.69312,-0.09863
03/26/20 14:24:31.632235 0.61377,0.68994,-0.12646
03/26/20 14:24:31.641562 0.59985,0.69775,-0.14941
03/26/20 14:24:31.650896 0.60889,0.69312,-0.18115
03/26/20 14:24:31.659975 0.60913,0.68799,-0.19775
03/26/20 14:24:31.669317 0.61060,0.68774,-0.21997
03/26/20 14:24:31.678654 0.62549,0.68115,-0.23682
03/26/20 14:24:31.684013 0.63745,0.67529,-0.25049
03/26/20 14:24:31.693098 0.68018,0.68359,-0.26611
03/26/20 14:24:31.702442 0.69507,0.69434,-0.27441
03/26/20 14:24:31.711784 0.69556,0.69727,-0.29785
03/26/20 14:24:31.721119 0.68481,0.71411,-0.31763
03/26/20 14:24:31.730444 0.67358,0.72852,-0.32910
03/26/20 14:24:31.739782 0.68628,0.77222,-0.35034
03/26/20 14:24:31.749119 0.72119,0.79834,-0.39014
03/26/20 14:24:31.758206 0.74512,0.80664,-0.41113
03/26/20 14:24:31.767536 0.77246,0.79517,-0.44165
03/26/20 14:24:31.772894 0.76563,0.78979,-0.45313
03/26/20 14:24:31.782238 0.76489,0.80273,-0.47900
03/26/20 14:24:31.791580 0.77344,0.83179,-0.48682
03/26/20 14:24:31.800663 0.79712,0.87939,-0.49512
03/26/20 14:24:31.809999 0.83521,0.91455,-0.48730
03/26/20 14:24:31.819334 0.85889,0.93066,-0.47144
03/26/20 14:24:31.828661 0.86719,0.95142,-0.45166
03/26/20 14:24:31.837980 0.87109,0.98877,-0.45239
03/26/20 14:24:31.847305 0.86865,1.02710,-0.45581
03/26/20 14:24:31.856384 0.85693,1.04053,-0.45972
03/26/20 14:24:31.861736 0.84814,1.04395,-0.46094
03/26/20 14:24:31.871056 0.84521,1.04004,-0.48340
03/26/20 14:24:31.880398 0.84277,1.02808,-0.49927
03/26/20 14:24:31.889736 0.83936,1.00293,-0.54395
03/26/20 14:24:31.898829 0.83032,0.95532,-0.57813
03/26/20 14:24:31.908165 0.81445,0.90527,-0.62598
03/26/20 14:24:31.917511 0.80688,0.84692,-0.66699
03/26/20 14:24:31.926853 0.81299,0.80615,-0.70020
03/26/20 14:24:31.936195 0.82471,0.75269,-0.73267
03/26/20 14:24:31.945517 0.83350,0.71240,-0.75146
03/26/20 14:24:31.955339 0.83252,0.68457,-0.75342
03/26/20 14:24:31.964438 0.82080,0.65747,-0.74951
03/26/20 14:24:31.973784 0.79810,0.61719,-0.72827
03/26/20 14:24:31.983126 0.78394,0.60840,-0.71606
03/26/20 14:24:31.992470 0.76758,0.59277,-0.69458
03/26/20 14:24:32.001823 0.75244,0.58887,-0.69043
03/26/20 14:24:32.011173 0.73267,0.58447,-0.70752
03/26/20 14:24:32.020512 0.71021,0.56152,-0.69238
03/26/20 14:24:32.029606 0.69873,0.53320,-0.69043
03/26/20 14:24:32.038952 0.69629,0.50024,-0.67798
03/26/20 14:24:32.044312 0.68628,0.47168,-0.68262
03/26/20 14:24:32.053654 0.67651,0.40918,-0.69141
03/26/20 14:24:32.062752 0.66064,0.35693,-0.70801
03/26/20 14:24:32.072098 0.64502,0.32324,-0.72607
03/26/20 14:24:32.081448 0.62939,0.30298,-0.73853
03/26/20 14:24:32.090794 0.62231,0.28223,-0.74658
03/26/20 14:24:32.100155 0.62134,0.25781,-0.74219
03/26/20 14:24:32.109520 0.63965,0.20654,-0.74023
03/26/20 14:24:32.118896 0.66333,0.15796,-0.73169
03/26/20 14:24:32.128017 0.68311,0.12476,-0.73267
03/26/20 14:24:32.137390 0.67920,0.13623,-0.70801
03/26/20 14:24:32.142769 0.68140,0.14087,-0.69141
03/26/20 14:24:32.152142 0.68481,0.16577,-0.66235
03/26/20 14:24:32.161507 0.69165,0.18506,-0.64697
03/26/20 14:24:32.170628 0.68652,0.24194,-0.62256
03/26/20 14:24:32.179977 0.67822,0.29590,-0.60693
03/26/20 14:24:32.189323 0.66040,0.33838,-0.60303
03/26/20 14:24:32.198658 0.63818,0.38037,-0.60742
03/26/20 14:24:32.208004 0.62695,0.41626,-0.61182
03/26/20 14:24:32.217350 0.61279,0.43774,-0.61450
03/26/20 14:24:32.226700 0.57251,0.44824,-0.59619
03/26/20 14:24:32.236279 0.54028,0.46631,-0.59155
03/26/20 14:24:32.245640 0.51807,0.48730,-0.59741
03/26/20 14:24:32.255001 0.49316,0.48926,-0.58081
03/26/20 14:24:32.264362 0.46118,0.49292,-0.56982
03/26/20 14:24:32.273708 0.44287,0.49023,-0.56152
03/26/20 14:24:32.283062 0.43774,0.49707,-0.55493
03/26/20 14:24:32.292419 0.45386,0.52734,-0.53857
03/26/20 14:24:32.301525 0.46069,0.56396,-0.52075
03/26/20 14:24:32.310883 0.46973,0.60352,-0.49707
03/26/20 14:24:32.320244 0.48438,0.62695,-0.45996
03/26/20 14:24:32.325615 0.48901,0.63428,-0.45508
03/26/20 14:24:32.334972 0.49829,0.67480,-0.44287
03/26/20 14:24:32.344078 0.51709,0.70166,-0.41284
03/26/20 14:24:32.353443 0.55420,0.71362,-0.39014
03/26/20 14:24:32.362801 0.58032,0.69678,-0.35791
03/26/20 14:24:32.372154 0.59521,0.68359,-0.32568
03/26/20 14:24:32.381500 0.60889,0.67749,-0.32715
03/26/20 14:24:32.390858 0.61255,0.68213,-0.33008
03/26/20 14:24:32.400211 0.60864,0.68994,-0.33105
03/26/20 14:24:32.409317 0.58789,0.70410,-0.33716
03/26/20 14:24:32.414680 0.57397,0.69922,-0.33887
03/26/20 14:24:32.424038 0.54175,0.70459,-0.34985
03/26/20 14:24:32.433407 0.52441,0.70605,-0.35547
03/26/20 14:24:32.442516 0.52515,0.72021,-0.35645
03/26/20 14:24:32.451866 0.54199,0.73047,-0.36377
03/26/20 14:24:32.461235 0.57959,0.72144,-0.34570
03/26/20 14:24:32.470593 0.61646,0.70068,-0.30762
03/26/20 14:24:32.479939 0.66821,0.65967,-0.29370
03/26/20 14:24:32.489285 0.73828,0.61499,-0.28003
03/26/20 14:24:32.498638 0.80005,0.61060,-0.27979
03/26/20 14:24:32.508225 0.85425,0.63037,-0.29883
03/26/20 14:24:32.517578 0.88110,0.64551,-0.31714
03/26/20 14:24:32.526928 0.92554,0.67041,-0.32959
03/26/20 14:24:32.536278 0.93848,0.67725,-0.34253
03/26/20 14:24:32.545631 0.91260,0.67334,-0.34717
03/26/20 14:24:32.554989 0.89063,0.67310,-0.36133
03/26/20 14:24:32.564343 0.86475,0.67798,-0.37402
03/26/20 14:24:32.573700 0.83984,0.69336,-0.35791
03/26/20 14:24:32.582802 0.81934,0.69702,-0.33496
03/26/20 14:24:32.592152 0.79785,0.70117,-0.32715
03/26/20 14:24:32.597511 0.78198,0.70459,-0.31934
03/26/20 14:24:32.606861 0.76953,0.70459,-0.28320
03/26/20 14:24:32.615974 0.77100,0.69580,-0.26123
03/26/20 14:24:32.625324 0.77124,0.68945,-0.24048
03/26/20 14:24:32.634678 0.77246,0.67480,-0.21240
03/26/20 14:24:32.644032 0.79321,0.66162,-0.20557
03/26/20 14:24:32.653393 0.82080,0.63818,-0.19312
03/26/20 14:24:32.662747 0.85156,0.61279,-0.16504
03/26/20 14:24:32.672089 0.87573,0.58008,-0.16040
03/26/20 14:24:32.681187 0.89185,0.56055,-0.15723
03/26/20 14:24:32.686550 0.90161,0.52368,-0.14844
03/26/20 14:24:32.695896 0.90723,0.48804,-0.13477
03/26/20 14:24:32.705238 0.90674,0.46484,-0.13721
03/26/20 14:24:32.714336 0.90674,0.43994,-0.14453
03/26/20 14:24:32.723682 0.90503,0.43311,-0.15332
03/26/20 14:24:32.733036 0.91626,0.43311,-0.15918
03/26/20 14:24:32.742382 0.92090,0.43506,-0.16357
03/26/20 14:24:32.751728 0.91577,0.46143,-0.17725
03/26/20 14:24:32.761078 0.88940,0.48730,-0.17725
03/26/20 14:24:32.770428 0.86743,0.50684,-0.17920
03/26/20 14:24:32.780243 0.85889,0.53955,-0.19849
03/26/20 14:24:32.789330 0.85083,0.55078,-0.22998
03/26/20 14:24:32.798668 0.83545,0.58643,-0.26367
03/26/20 14:24:32.808010 0.82837,0.59521,-0.29199
03/26/20 14:24:32.817341 0.82813,0.58179,-0.29907
03/26/20 14:24:32.826679 0.81714,0.54028,-0.29736
03/26/20 14:24:32.836018 0.81689,0.50049,-0.31274
03/26/20 14:24:32.845356 0.81177,0.47363,-0.33789
03/26/20 14:24:32.854446 0.81323,0.46973,-0.38159
03/26/20 14:24:32.863789 0.79614,0.46948,-0.41211
03/26/20 14:24:32.869148 0.79492,0.46826,-0.41870
03/26/20 14:24:32.878491 0.77588,0.45557,-0.41626
03/26/20 14:24:32.887577 0.74976,0.42847,-0.40625
03/26/20 14:24:32.896912 0.71973,0.40479,-0.40576
03/26/20 14:24:32.906250 0.69409,0.37378,-0.39844
03/26/20 14:24:32.915585 0.68945,0.35913,-0.38672
03/26/20 14:24:32.924912 0.67480,0.34521,-0.38428
03/26/20 14:24:32.934246 0.66406,0.33423,-0.38428
03/26/20 14:24:32.943577 0.66089,0.35352,-0.37402
03/26/20 14:24:32.952663 0.67578,0.35962,-0.36035
03/26/20 14:24:32.958016 0.67578,0.35059,-0.34766
03/26/20 14:24:32.967358 0.67505,0.35205,-0.34351
03/26/20 14:24:32.976700 0.66748,0.36816,-0.32080
03/26/20 14:24:32.985794 0.68628,0.36914,-0.30396
03/26/20 14:24:32.995125 0.70801,0.38110,-0.29590
03/26/20 14:24:33.004471 0.72656,0.39771,-0.28613
03/26/20 14:24:33.013809 0.74487,0.42773,-0.27466
03/26/20 14:24:33.023148 0.76074,0.44629,-0.26221
03/26/20 14:24:33.032478 0.78320,0.46875,-0.25098
03/26/20 14:24:33.041813 0.81030,0.51685,-0.24023
03/26/20 14:24:33.051632 0.84033,0.55469,-0.22070
03/26/20 14:24:33.060719 0.86133,0.58105,-0.21802
03/26/20 14:24:33.070057 0.87744,0.60742,-0.21802
03/26/20 14:24:33.079399 0.88916,0.64917,-0.21582
03/26/20 14:24:33.088741 0.90771,0.67334,-0.21094
03/26/20 14:24:33.098087 0.91577,0.68994,-0.21289
03/26/20 14:24:33.107426 0.91016,0.70117,-0.20459
03/26/20 14:24:33.116772 0.86157,0.68848,-0.18213
03/26/20 14:24:33.125870 0.91187,0.73389,-0.21094
03/26/20 14:24:33.135216 0.91284,0.74146,-0.21729
03/26/20 14:24:33.140572 0.91162,0.73853,-0.22998
03/26/20 14:24:33.149914 0.89038,0.74927,-0.24170
03/26/20 14:24:33.159004 0.88232,0.75000,-0.24512
03/26/20 14:24:33.168339 0.86841,0.75415,-0.25708
03/26/20 14:24:33.177662 0.86841,0.77197,-0.28271
03/26/20 14:24:33.186993 0.86353,0.76855,-0.27539
03/26/20 14:24:33.196320 0.86011,0.75244,-0.27734
03/26/20 14:24:33.205650 0.85449,0.74854,-0.28076
03/26/20 14:24:33.214977 0.86084,0.74756,-0.28369
03/26/20 14:24:33.224064 0.85864,0.73779,-0.27856
03/26/20 14:24:33.229420 0.85547,0.72559,-0.27661
03/26/20 14:24:33.238754 0.86621,0.69604,-0.27051
03/26/20 14:24:33.248081 0.84985,0.66919,-0.27417
03/26/20 14:24:33.257172 0.85400,0.62451,-0.24512
03/26/20 14:24:33.266510 0.85669,0.58032,-0.24854
03/26/20 14:24:33.275845 0.87061,0.57129,-0.23267
03/26/20 14:24:33.285175 0.89136,0.58276,-0.23315
03/26/20 14:24:33.294525 0.85791,0.60327,-0.21875
03/26/20 14:24:33.303871 0.88501,0.56689,-0.19678
03/26/20 14:24:33.313213 0.91602,0.55176,-0.19043
03/26/20 14:24:33.322784 0.90283,0.55884,-0.21484
03/26/20 14:24:33.332123 0.89453,0.57983,-0.21729
03/26/20 14:24:33.341461 0.91675,0.55640,-0.21045
03/26/20 14:24:33.350800 0.92871,0.56299,-0.21582
03/26/20 14:24:33.360134 0.90234,0.55981,-0.22168
03/26/20 14:24:33.369476 0.88574,0.49414,-0.20264
03/26/20 14:24:33.378822 0.85938,0.45508,-0.18994
03/26/20 14:24:33.387913 0.80469,0.47241,-0.19531
03/26/20 14:24:33.397240 0.77222,0.48096,-0.20947
03/26/20 14:24:33.406567 0.74609,0.46582,-0.21484
03/26/20 14:24:33.411922 0.73022,0.47021,-0.22803
03/26/20 14:24:33.421249 0.69727,0.46875,-0.24463
03/26/20 14:24:33.430325 0.66797,0.45459,-0.24805
03/26/20 14:24:33.439652 0.68115,0.46167,-0.29150
03/26/20 14:24:33.448990 0.68628,0.48120,-0.32910
03/26/20 14:24:33.458321 0.64941,0.47974,-0.29736
03/26/20 14:24:33.467651 0.64136,0.44775,-0.28101
03/26/20 14:24:33.476982 0.62598,0.43408,-0.27393
03/26/20 14:24:33.486313 0.60474,0.41943,-0.25317
03/26/20 14:24:33.495392 0.60303,0.41357,-0.23047
03/26/20 14:24:33.500748 0.60620,0.41016,-0.22632
03/26/20 14:24:33.510082 0.60229,0.37744,-0.21484
03/26/20 14:24:33.519417 0.60400,0.33887,-0.20947
03/26/20 14:24:33.528507 0.59448,0.31909,-0.19043
03/26/20 14:24:33.537842 0.60864,0.32007,-0.20947
03/26/20 14:24:33.547176 0.59570,0.35840,-0.23804
03/26/20 14:24:33.556511 0.62476,0.41968,-0.29370
03/26/20 14:24:33.565846 0.62256,0.47681,-0.35449
03/26/20 14:24:33.575169 0.60010,0.49756,-0.38013
03/26/20 14:24:33.584553 0.55664,0.54932,-0.38525
03/26/20 14:24:33.594124 0.55566,0.51758,-0.33105
03/26/20 14:24:33.603455 0.57178,0.50464,-0.28516
03/26/20 14:24:33.612782 0.55127,0.50903,-0.28369
03/26/20 14:24:33.622124 0.55273,0.52490,-0.28101
03/26/20 14:24:33.631466 0.54663,0.50903,-0.26953
03/26/20 14:24:33.640808 0.55786,0.46826,-0.23901
03/26/20 14:24:33.650139 0.61548,0.42969,-0.21753
03/26/20 14:24:33.659233 0.65186,0.45435,-0.26733
03/26/20 14:24:33.668572 0.66724,0.46191,-0.32666
03/26/20 14:24:33.677914 0.72412,0.46094,-0.33765
03/26/20 14:24:33.683270 0.75342,0.47070,-0.33740
03/26/20 14:24:33.692616 0.79761,0.50391,-0.31567
03/26/20 14:24:33.701710 0.79980,0.54004,-0.28052
03/26/20 14:24:33.711044 0.81494,0.51978,-0.27979
03/26/20 14:24:33.720379 0.83423,0.47168,-0.24072
03/26/20 14:24:33.729717 0.85352,0.48071,-0.24243
03/26/20 14:24:33.739059 0.86255,0.45142,-0.27905
03/26/20 14:24:33.748406 0.85889,0.43335,-0.32568
03/26/20 14:24:33.757744 0.87207,0.41064,-0.36670
03/26/20 14:24:33.766846 0.86768,0.38159,-0.38013
03/26/20 14:24:33.772209 0.91211,0.37427,-0.39014
03/26/20 14:24:33.781559 0.89111,0.31909,-0.41064
03/26/20 14:24:33.790909 0.88843,0.32471,-0.35254
03/26/20 14:24:33.800003 0.92041,0.30713,-0.31494
03/26/20 14:24:33.809361 0.93066,0.22363,-0.27661
03/26/20 14:24:33.818703 0.93433,0.21045,-0.26416
03/26/20 14:24:33.828037 0.90454,0.25415,-0.27246
03/26/20 14:24:33.837376 0.91162,0.29590,-0.27881
03/26/20 14:24:33.846718 0.89551,0.28149,-0.30469
03/26/20 14:24:33.856056 0.90063,0.23486,-0.27979
03/26/20 14:24:33.865620 0.93945,0.24902,-0.22803
03/26/20 14:24:33.874954 1.05444,0.37378,-0.29761
03/26/20 14:24:33.884296 1.03857,0.24829,-0.26196
03/26/20 14:24:33.893639 0.97607,0.25000,-0.28442
03/26/20 14:24:33.902977 0.89355,0.17505,-0.28662
03/26/20 14:24:33.912323 0.94971,0.24536,-0.14185
03/26/20 14:24:33.921661 1.21509,0.45581,-0.12939
03/26/20 14:24:33.930763 1.26782,-0.01416,0.04468
03/26/20 14:24:33.940125 1.19360,-0.06348,-0.04712
03/26/20 14:24:33.949497 1.03076,0.00635,-0.20093
03/26/20 14:24:33.954872 0.99731,0.17383,-0.27563
03/26/20 14:24:33.964226 0.97925,0.16846,-0.29614
03/26/20 14:24:33.973324 0.99512,0.08618,-0.28271
03/26/20 14:24:33.982670 0.97949,0.03613,-0.28223
03/26/20 14:24:33.992008 0.94019,-0.04468,-0.28149
03/26/20 14:24:34.001350 0.92188,-0.09668,-0.24658
03/26/20 14:24:34.010696 0.97583,-0.05566,-0.21582
03/26/20 14:24:34.020046 1.11865,0.00073,-0.19556
03/26/20 14:24:34.029396 1.22021,-0.01465,-0.13672
03/26/20 14:24:34.038502 1.22119,0.02515,-0.11938
03/26/20 14:24:34.043865 1.21851,0.04224,-0.13647
03/26/20 14:24:34.053207 1.21436,0.21509,-0.16650
03/26/20 14:24:34.062553 1.20630,0.34082,-0.20605
03/26/20 14:24:34.071648 1.11792,0.37280,-0.25171
03/26/20 14:24:34.080994 1.04297,0.38818,-0.32520
03/26/20 14:24:34.090336 0.97461,0.34473,-0.30859
03/26/20 14:24:34.099686 0.92822,0.30957,-0.25146
03/26/20 14:24:34.109039 0.73682,0.25439,-0.31934
03/26/20 14:24:34.118381 0.64355,0.16870,-0.31079
03/26/20 14:24:34.127728 0.72192,0.08545,-0.20801
03/26/20 14:24:34.137310 0.74390,0.04004,-0.18555
03/26/20 14:24:34.146652 0.73706,0.15601,-0.16382
03/26/20 14:24:34.156006 0.78564,0.22070,-0.13599
03/26/20 14:24:34.165352 2.00000,0.15479,0.76123
03/26/20 14:24:34.174702 1.72510,-0.91382,0.52490
03/26/20 14:24:34.184048 1.30640,-0.31909,-0.07593
03/26/20 14:24:34.193375 1.23608,-0.36499,0.05273
03/26/20 14:24:34.202457 1.06274,-0.39941,-0.04395
03/26/20 14:24:34.211800 0.76831,-0.18970,-0.26416
03/26/20 14:24:34.221142 0.76050,0.04126,-0.27002
03/26/20 14:24:34.226509 0.76489,0.11865,-0.29858
03/26/20 14:24:34.235863 0.76880,0.34009,-0.41724
03/26/20 14:24:34.244972 0.80151,0.60815,-0.49170
03/26/20 14:24:34.254334 0.81787,0.70410,-0.44604
03/26/20 14:24:34.263683 0.86035,0.55713,-0.44629
03/26/20 14:24:34.273029 0.88989,0.55029,-0.35986
03/26/20 14:24:34.282375 0.83813,0.45361,-0.30273
03/26/20 14:24:34.291714 0.79565,0.46655,-0.29346
03/26/20 14:24:34.301060 0.79858,0.48438,-0.27246
03/26/20 14:24:34.310146 0.80054,0.45508,-0.20947
03/26/20 14:24:34.315506 0.83032,0.41479,-0.20264
03/26/20 14:24:34.324837 0.81567,0.32446,-0.21631
03/26/20 14:24:34.334179 0.72974,0.33276,-0.29932
03/26/20 14:24:34.343273 0.65576,0.37476,-0.38672
03/26/20 14:24:34.352608 0.63452,0.47095,-0.43970
03/26/20 14:24:34.361938 0.74634,0.54761,-0.44238
03/26/20 14:24:34.371296 0.86060,0.59619,-0.45850
03/26/20 14:24:34.380653 1.04663,0.32349,-0.50342
03/26/20 14:24:34.390015 0.49316,0.87061,-0.14258
03/26/20 14:24:34.399368 0.67212,0.84839,-0.41235
03/26/20 14:24:34.408955 0.64795,0.72803,-0.35645
03/26/20 14:24:34.418308 0.61646,0.78613,-0.40723
03/26/20 14:24:34.427654 0.56494,0.82617,-0.46802
03/26/20 14:24:34.436997 0.61743,0.68604,-0.45117
03/26/20 14:24:34.446343 0.62549,0.65234,-0.44287
03/26/20 14:24:34.455692 0.63330,0.64551,-0.43628
03/26/20 14:24:34.465042 0.64355,0.62256,-0.43604
03/26/20 14:24:34.474136 0.66431,0.52686,-0.45044
03/26/20 14:24:34.483490 0.72485,0.37695,-0.44092
03/26/20 14:24:34.492844 0.76270,0.26343,-0.42798
03/26/20 14:24:34.498219 0.77222,0.21851,-0.44336
03/26/20 14:24:34.507568 0.70166,0.21704,-0.44067
03/26/20 14:24:34.516678 0.74219,0.17456,-0.41895
03/26/20 14:24:34.526032 0.70435,0.23853,-0.42163
03/26/20 14:24:34.535385 0.71777,0.30981,-0.45703
03/26/20 14:24:34.544735 0.70215,0.30469,-0.45386
03/26/20 14:24:34.554092 0.69702,0.26587,-0.45850
03/26/20 14:24:34.563446 0.67188,0.24854,-0.46289
03/26/20 14:24:34.572804 0.67188,0.24048,-0.44434
03/26/20 14:24:34.581909 0.66553,0.22241,-0.45557
03/26/20 14:24:34.587280 0.66724,0.20093,-0.45435
03/26/20 14:24:34.596634 0.76807,0.25171,-0.36938
03/26/20 14:24:34.605991 0.75684,0.08594,-0.61597
03/26/20 14:24:34.615105 0.90137,0.08374,-0.45117
03/26/20 14:24:34.624470 1.04810,0.06836,-0.34033
03/26/20 14:24:34.633839 1.04614,-0.12720,-0.37500
03/26/20 14:24:34.643208 0.88452,-0.22412,-0.43799
03/26/20 14:24:34.652576 0.75000,-0.30908,-0.50098
03/26/20 14:24:34.661957 0.68750,-0.22388,-0.56055
03/26/20 14:24:34.671330 0.70947,-0.23022,-0.64258
03/26/20 14:24:34.681194 0.86279,-0.16162,-0.61377
03/26/20 14:24:34.690308 0.67505,0.20703,-0.55420
03/26/20 14:24:34.699669 0.85132,-0.03760,-0.50610
03/26/20 14:24:34.709045 0.63647,-0.24780,-0.83398
03/26/20 14:24:34.718414 0.58228,-0.32617,-0.68579
03/26/20 14:24:34.727783 0.54590,-0.49097,-0.63159
03/26/20 14:24:34.737160 0.54175,-0.62256,-0.69873
03/26/20 14:24:34.746529 0.58105,-0.65527,-0.83179
03/26/20 14:24:34.755642 0.36646,-0.61230,-1.07080
03/26/20 14:24:34.765018 0.41211,-0.36450,-1.26563
03/26/20 14:24:34.770397 0.39893,-0.17871,-1.32104
03/26/20 14:24:34.779774 0.26855,0.02954,-1.41895
03/26/20 14:24:34.788891 0.11694,0.25366,-1.49487
03/26/20 14:24:34.798267 0.06396,0.57373,-1.62402
03/26/20 14:24:34.807640 0.00122,0.81250,-1.66553
03/26/20 14:24:34.816994 -0.08960,1.03979,-1.61475
03/26/20 14:24:34.826340 -0.10205,1.04419,-1.58545
03/26/20 14:24:34.835690 -0.04150,1.17090,-1.58179
03/26/20 14:24:34.845039 -0.02002,1.16162,-1.54883
03/26/20 14:24:34.854134 -0.01587,1.23291,-1.52100
03/26/20 14:24:34.859501 0.01465,1.26465,-1.52344
03/26/20 14:24:34.868855 0.12036,1.31714,-1.57251
03/26/20 14:24:34.878212 0.47876,1.34473,-1.59570
03/26/20 14:24:34.887558 1.03418,1.38501,-1.43896
03/26/20 14:24:34.896660 1.78857,1.45630,-1.20776
03/26/20 14:24:34.906006 2.00000,1.48096,-0.95166
03/26/20 14:24:34.915356 2.00000,1.44727,-0.76245
03/26/20 14:24:34.924706 2.00000,1.25610,-0.59155
03/26/20 14:24:34.934055 2.00000,0.93628,-0.46216
03/26/20 14:24:34.943394 2.00000,0.56543,-0.41870
03/26/20 14:24:34.953213 2.00000,0.29370,-0.44580
03/26/20 14:24:34.962318 2.00000,0.16309,-0.51953
03/26/20 14:24:34.971668 1.84424,0.14893,-0.63428
03/26/20 14:24:34.981014 1.67773,0.12842,-0.69971
03/26/20 14:24:34.990372 1.46240,0.06836,-0.77686
03/26/20 14:24:34.999741 1.29199,-0.05518,-0.87549
03/26/20 14:24:35.009113 1.18604,-0.17529,-0.89136
03/26/20 14:24:35.018463 1.12305,-0.25562,-0.85938
03/26/20 14:24:35.027584 1.10034,-0.29688,-0.88770
03/26/20 14:24:35.036964 1.17603,-0.31152,-0.87915
03/26/20 14:24:35.042343 1.18237,-0.33594,-0.90430
03/26/20 14:24:35.051708 1.15747,-0.20386,-0.99634
03/26/20 14:24:35.060814 1.17554,-0.11011,-1.07764
03/26/20 14:24:35.070160 1.04614,0.15234,-1.19556
03/26/20 14:24:35.079510 1.01807,0.25122,-1.12061
03/26/20 14:24:35.088852 0.99365,0.23511,-1.10107
03/26/20 14:24:35.098198 1.00659,0.27881,-1.05811
03/26/20 14:24:35.107544 0.97510,0.34253,-1.00830
03/26/20 14:24:35.116882 0.89819,0.40210,-0.98926
03/26/20 14:24:35.125958 0.75732,0.48315,-0.99951
03/26/20 14:24:35.131313 0.68188,0.55908,-1.03198
03/26/20 14:24:35.140644 0.47754,0.82227,-1.11963
03/26/20 14:24:35.149990 0.28979,1.04956,-1.21753
03/26/20 14:24:35.159332 0.08765,1.11450,-1.27075
03/26/20 14:24:35.168442 -0.02271,1.09082,-1.28320
03/26/20 14:24:35.177773 -0.06665,0.96167,-1.31836
03/26/20 14:24:35.187103 -0.06030,0.89795,-1.26001
03/26/20 14:24:35.196445 0.07544,0.74414,-1.20264
03/26/20 14:24:35.205795 0.18506,0.65527,-1.12988
03/26/20 14:24:35.215145 0.26831,0.55713,-1.03125
03/26/20 14:24:35.224976 0.32007,0.45337,-0.91455
03/26/20 14:24:35.234074 0.35791,0.42896,-0.83350
03/26/20 14:24:35.243431 0.39453,0.39233,-0.77393
03/26/20 14:24:35.252789 0.41357,0.33643,-0.72852
03/26/20 14:24:35.262135 0.45166,0.32813,-0.67456
03/26/20 14:24:35.271488 0.48120,0.35742,-0.65625
03/26/20 14:24:35.280842 0.47754,0.41626,-0.65649
03/26/20 14:24:35.290184 0.50122,0.46802,-0.69434
03/26/20 14:24:35.299278 0.52832,0.53467,-0.75342
03/26/20 14:24:35.308624 0.55029,0.65039,-0.76123
03/26/20 14:24:35.313984 0.56909,0.69800,-0.78052
03/26/20 14:24:35.323318 0.56445,0.76465,-0.79980
03/26/20 14:24:35.332401 0.58838,0.76807,-0.79004
03/26/20 14:24:35.341728 0.59644,0.71533,-0.76489
03/26/20 14:24:35.351048 0.57275,0.64624,-0.73340
03/26/20 14:24:35.360371 0.54883,0.59644,-0.75439
03/26/20 14:24:35.369686 0.53662,0.56299,-0.76416
03/26/20 14:24:35.379013 0.53906,0.54858,-0.75781
03/26/20 14:24:35.388344 0.51709,0.50049,-0.76709
03/26/20 14:24:35.397415 0.49512,0.47534,-0.75342
03/26/20 14:24:35.402771 0.49414,0.43921,-0.74854
03/26/20 14:24:35.412106 0.47656,0.40039,-0.74414
03/26/20 14:24:35.421452 0.45435,0.44678,-0.72070
03/26/20 14:24:35.430794 0.47217,0.37451,-0.72217
03/26/20 14:24:35.439888 0.45752,0.34717,-0.73340
03/26/20 14:24:35.449219 0.45386,0.40601,-0.70557
03/26/20 14:24:35.458550 0.45361,0.43555,-0.67017
03/26/20 14:24:35.467876 0.48511,0.40186,-0.63867
03/26/20 14:24:35.477200 0.47461,0.42725,-0.63794
03/26/20 14:24:35.486534 0.44385,0.50122,-0.64795
03/26/20 14:24:35.496353 0.42090,0.51270,-0.63232
03/26/20 14:24:35.505444 0.42944,0.52490,-0.63745
03/26/20 14:24:35.514771 0.45142,0.51514,-0.63281
03/26/20 14:24:35.524105 0.44067,0.51733,-0.67017
03/26/20 14:24:35.533443 0.40820,0.55835,-0.67505
03/26/20 14:24:35.542786 0.38184,0.59985,-0.68115
03/26/20 14:24:35.552128 0.40479,0.58936,-0.71948
03/26/20 14:24:35.561466 0.40161,0.61816,-0.73657
03/26/20 14:24:35.570564 0.41382,0.64868,-0.74072
03/26/20 14:24:35.579956 0.45190,0.65845,-0.77930
03/26/20 14:24:35.585316 0.46411,0.66260,-0.79102
03/26/20 14:24:35.594666 0.51270,0.66943,-0.78271
03/26/20 14:24:35.603756 0.53174,0.65527,-0.74048
03/26/20 14:24:35.613098 0.59546,0.65967,-0.69946
03/26/20 14:24:35.622437 0.63916,0.62720,-0.71753
03/26/20 14:24:35.631767 0.62549,0.59570,-0.73438
03/26/20 14:24:35.641098 0.64478,0.62256,-0.72266
03/26/20 14:24:35.650425 0.65845,0.62354,-0.71631
03/26/20 14:24:35.659744 0.71460,0.57910,-0.73779
03/26/20 14:24:35.668831 0.73462,0.54492,-0.75269
03/26/20 14:24:35.674191 0.75952,0.49146,-0.79224
03/26/20 14:24:35.683518 0.76489,0.50659,-0.75049
03/26/20 14:24:35.692833 0.80396,0.50830,-0.72217
03/26/20 14:24:35.702152 0.82153,0.49341,-0.67944
03/26/20 14:24:35.711220 0.83130,0.49414,-0.66797
03/26/20 14:24:35.720535 0.84521,0.46582,-0.64941
03/26/20 14:24:35.729851 0.83618,0.44727,-0.62939
03/26/20 14:24:35.739170 0.80298,0.41846,-0.61743
03/26/20 14:24:35.748489 0.78003,0.46069,-0.57935
03/26/20 14:24:35.757805 0.76172,0.45776,-0.58154
03/26/20 14:24:35.767593 0.74390,0.44531,-0.58496
03/26/20 14:24:35.776665 0.70068,0.44434,-0.57080
03/26/20 14:24:35.785980 0.68311,0.43530,-0.56421
03/26/20 14:24:35.795300 0.67212,0.41064,-0.57617
03/26/20 14:24:35.804615 0.67505,0.38818,-0.55103
03/26/20 14:24:35.813938 0.67822,0.38525,-0.53101
03/26/20 14:24:35.823265 0.71484,0.35791,-0.50635
03/26/20 14:24:35.832592 0.75952,0.31860,-0.48535
03/26/20 14:24:35.841660 0.80640,0.30420,-0.45728
03/26/20 14:24:35.850983 0.87598,0.26367,-0.43188
03/26/20 14:24:35.856335 0.90332,0.23511,-0.40576
03/26/20 14:24:35.865658 0.93555,0.25366,-0.36572
03/26/20 14:24:35.874729 0.94727,0.28296,-0.37695
03/26/20 14:24:35.884052 0.93774,0.32153,-0.37939
03/26/20 14:24:35.893375 0.93408,0.35718,-0.37476
03/26/20 14:24:35.902706 0.94580,0.37256,-0.38525
03/26/20 14:24:35.912029 0.93896,0.37769,-0.39771
03/26/20 14:24:35.921360 0.93408,0.39941,-0.39917
03/26/20 14:24:35.930691 0.92139,0.40918,-0.41064
03/26/20 14:24:35.939774 0.92993,0.39771,-0.41162
03/26/20 14:24:35.945126 0.94116,0.38525,-0.41309
03/26/20 14:24:35.954456 0.95215,0.35864,-0.42261
03/26/20 14:24:35.963795 0.95776,0.35205,-0.42627
03/26/20 14:24:35.972878 0.97388,0.33203,-0.42822
03/26/20 14:24:35.982208 1.00000,0.27173,-0.42163
03/26/20 14:24:35.991547 1.02466,0.28638,-0.41919
03/26/20 14:24:36.000877 1.02783,0.34619,-0.43701
03/26/20 14:24:36.010208 1.02637,0.32227,-0.47583
03/26/20 14:24:36.019531 1.03394,0.29004,-0.48975
03/26/20 14:24:36.028862 1.02539,0.28223,-0.49805
03/26/20 14:24:36.038410 0.99487,0.28198,-0.50049
03/26/20 14:24:36.047729 0.97070,0.26953,-0.51221
03/26/20 14:24:36.057049 0.94385,0.24634,-0.52295
03/26/20 14:24:36.066372 0.90723,0.22266,-0.51953
03/26/20 14:24:36.075699 0.87061,0.25464,-0.52393
03/26/20 14:24:36.085026 0.83838,0.27051,-0.53418
03/26/20 14:24:36.094345 0.79053,0.26758,-0.53369
03/26/20 14:24:36.103420 0.76196,0.29102,-0.52686
03/26/20 14:24:36.112743 0.76099,0.30103,-0.50439
03/26/20 14:24:36.122067 0.77173,0.30762,-0.48535
03/26/20 14:24:36.131382 0.78491,0.28809,-0.45801
03/26/20 14:24:36.136734 0.78589,0.26758,-0.44873
03/26/20 14:24:36.145809 0.80322,0.21582,-0.44580
03/26/20 14:24:36.155132 0.81885,0.18555,-0.44043
03/26/20 14:24:36.164452 0.81616,0.17480,-0.43286
03/26/20 14:24:36.173782 0.79761,0.17871,-0.43164
03/26/20 14:24:36.183113 0.78857,0.15747,-0.43701
03/26/20 14:24:36.192455 0.78491,0.12695,-0.44775
03/26/20 14:24:36.201790 0.77075,0.11987,-0.46021
03/26/20 14:24:36.210873 0.75488,0.11963,-0.47412
03/26/20 14:24:36.220207 0.74854,0.11694,-0.48193
03/26/20 14:24:36.225567 0.75000,0.12549,-0.47827
03/26/20 14:24:36.234905 0.74829,0.13379,-0.46240
03/26/20 14:24:36.243988 0.75708,0.15967,-0.45776
03/26/20 14:24:36.253319 0.76636,0.19043,-0.45825
03/26/20 14:24:36.262650 0.77051,0.19922,-0.45264
03/26/20 14:24:36.271961 0.77344,0.20020,-0.45020
03/26/20 14:24:36.281281 0.77515,0.19141,-0.45435
03/26/20 14:24:36.290596 0.78369,0.20703,-0.45166
03/26/20 14:24:36.299912 0.78394,0.22241,-0.45996
03/26/20 14:24:36.308971 0.79175,0.22388,-0.46387
03/26/20 14:24:36.314320 0.78223,0.24048,-0.46240
03/26/20 14:24:36.323635 0.76563,0.26294,-0.46875
03/26/20 14:24:36.332951 0.76147,0.28198,-0.46802
03/26/20 14:24:36.342014 0.76611,0.28003,-0.46387
03/26/20 14:24:36.351330 0.77441,0.29810,-0.45068
03/26/20 14:24:36.360645 0.77295,0.32910,-0.44678
03/26/20 14:24:36.369961 0.77832,0.34766,-0.42871
03/26/20 14:24:36.379269 0.79980,0.35962,-0.40820
03/26/20 14:24:36.388592 0.82959,0.37280,-0.39844
03/26/20 14:24:36.397911 0.85352,0.38135,-0.38721
03/26/20 14:24:36.407471 0.87866,0.38330,-0.36670
03/26/20 14:24:36.416786 0.90039,0.37524,-0.36011
03/26/20 14:24:36.426109 0.91870,0.35181,-0.34351
03/26/20 14:24:36.435436 0.92041,0.35986,-0.33765
03/26/20 14:24:36.444752 0.92383,0.36475,-0.33545
03/26/20 14:24:36.454063 0.92896,0.34058,-0.33203
03/26/20 14:24:36.463390 0.93872,0.33374,-0.33057
03/26/20 14:24:36.472466 0.94141,0.34351,-0.33008
03/26/20 14:24:36.481796 0.95459,0.32983,-0.33545
03/26/20 14:24:36.491119 0.96973,0.29736,-0.32275
03/26/20 14:24:36.496479 0.99829,0.26660,-0.31494
03/26/20 14:24:36.505562 1.01953,0.30005,-0.32056
03/26/20 14:24:36.514900 1.03857,0.35156,-0.31787
03/26/20 14:24:36.524223 1.06616,0.37573,-0.32031
03/26/20 14:24:36.533550 1.11108,0.39014,-0.29492
03/26/20 14:24:36.542881 1.14014,0.41504,-0.27197
03/26/20 14:24:36.552200 1.14111,0.42358,-0.27393
03/26/20 14:24:36.561516 1.14404,0.42114,-0.26318
03/26/20 14:24:36.570583 1.12646,0.42725,-0.27393
03/26/20 14:24:36.579948 1.08716,0.45093,-0.28271
03/26/20 14:24:36.585312 1.06128,0.47388,-0.28198
03/26/20 14:24:36.594624 1.03418,0.47388,-0.28711
03/26/20 14:24:36.603943 0.98828,0.46265,-0.28857
03/26/20 14:24:36.613007 0.95557,0.48706,-0.29517
03/26/20 14:24:36.622314 0.93628,0.51660,-0.28369
03/26/20 14:24:36.631611 0.92871,0.52637,-0.27490
03/26/20 14:24:36.640926 0.90308,0.48389,-0.24658
03/26/20 14:24:36.650238 0.86572,0.44312,-0.25635
03/26/20 14:24:36.659557 0.79077,0.49976,-0.28711
03/26/20 14:24:36.668888 0.75537,0.60596,-0.30762
03/26/20 14:24:36.678459 0.74512,0.65894,-0.25098
03/26/20 14:24:36.687782 0.76221,0.60840,-0.26123
03/26/20 14:24:36.697105 0.72021,0.59424,-0.27856
03/26/20 14:24:36.706425 0.69287,0.56860,-0.27002
03/26/20 14:24:36.715740 0.69702,0.54346,-0.29053
03/26/20 14:24:36.725056 0.68994,0.56250,-0.26660
03/26/20 14:24:36.734371 0.71313,0.54883,-0.26318
03/26/20 14:24:36.743431 0.68848,0.59351,-0.26709
03/26/20 14:24:36.752747 0.68506,0.63843,-0.26514
03/26/20 14:24:36.762062 0.66943,0.63037,-0.24292
03/26/20 14:24:36.767414 0.66797,0.59644,-0.19629
03/26/20 14:24:36.776482 0.54688,0.67847,-0.28467
03/26/20 14:24:36.785809 0.50977,0.67896,-0.27588
03/26/20 14:24:36.795124 0.50049,0.64966,-0.23413
03/26/20 14:24:36.804436 0.45337,0.67212,-0.22754
03/26/20 14:24:36.813748 0.46094,0.73657,-0.24072
03/26/20 14:24:36.823067 0.46484,0.79565,-0.21680
03/26/20 14:24:36.832390 0.43384,0.82959,-0.22290
03/26/20 14:24:36.841477 0.42896,0.82227,-0.22070
03/26/20 14:24:36.850800 0.41479,0.79785,-0.18237
03/26/20 14:24:36.856155 0.42139,0.78809,-0.16992
03/26/20 14:24:36.865479 0.46411,0.76660,-0.14648
03/26/20 14:24:36.874554 0.48389,0.77490,-0.12598
03/26/20 14:24:36.883865 0.48120,0.75635,-0.02612
03/26/20 14:24:36.893173 0.49805,0.60229,-0.04053
03/26/20 14:24:36.902485 0.49243,0.54932,-0.04175
03/26/20 14:24:36.911804 0.45947,0.56250,-0.00879
03/26/20 14:24:36.921112 0.43677,0.65405,0.01318
03/26/20 14:24:36.930412 0.42456,0.70850,0.01855
03/26/20 14:24:36.939468 0.45972,0.74072,0.02075
03/26/20 14:24:36.944813 0.47656,0.79053,0.04297
03/26/20 14:24:36.954105 0.50464,0.80566,0.09229
03/26/20 14:24:36.963417 0.52075,0.80566,0.10693
03/26/20 14:24:36.972488 0.52100,0.81958,0.07422
03/26/20 14:24:36.981800 0.51538,0.78369,0.09448
03/26/20 14:24:36.991116 0.51758,0.76221,0.07202
03/26/20 14:24:37.000427 0.46753,0.77002,0.10059
03/26/20 14:24:37.009750 0.44336,0.80005,0.11206
03/26/20 14:24:37.019070 0.44263,0.80713,0.05078
03/26/20 14:24:37.028397 0.40576,0.79810,0.07690
03/26/20 14:24:37.038197 0.42822,0.79517,0.14746
03/26/20 14:24:37.047272 0.44531,0.76270,0.06738
03/26/20 14:24:37.056595 0.44580,0.76953,0.12305
03/26/20 14:24:37.065922 0.44238,0.77759,0.14038
03/26/20 14:24:37.075245 0.44824,0.78516,0.14429
03/26/20 14:24:37.084576 0.44580,0.76611,0.14893
03/26/20 14:24:37.093903 0.45215,0.77051,0.15576
03/26/20 14:24:37.102982 0.42944,0.79517,0.16504
03/26/20 14:24:37.112305 0.42236,0.77710,0.16846
03/26/20 14:24:37.121624 0.41895,0.79346,0.16016
03/26/20 14:24:37.126972 0.41138,0.78516,0.15967
03/26/20 14:24:37.136288 0.39014,0.77271,0.15601
03/26/20 14:24:37.145355 0.36011,0.77808,0.15234
03/26/20 14:24:37.154671 0.35498,0.79492,0.13770
03/26/20 14:24:37.163994 0.35962,0.81982,0.12402
03/26/20 14:24:37.173313 0.36011,0.86060,0.12500
03/26/20 14:24:37.182648 0.36108,0.92749,0.13184
03/26/20 14:24:37.191978 0.36450,0.94678,0.15625
03/26/20 14:24:37.201313 0.39380,0.96875,0.15454
03/26/20 14:24:37.210396 0.44800,0.95874,0.16992
03/26/20 14:24:37.219730 0.49976,0.93872,0.18506
03/26/20 14:24:37.225086 0.53516,0.93823,0.19312
03/26/20 14:24:37.234413 0.60889,0.93457,0.21436
03/26/20 14:24:37.243488 0.66406,0.97412,0.21387
03/26/20 14:24:37.252815 0.72412,1.00708,0.22705
03/26/20 14:24:37.262135 0.78052,1.03320,0.22314
03/26/20 14:24:37.271454 0.85620,0.97876,0.16821
03/26/20 14:24:37.280769 0.81396,0.98608,0.13159
03/26/20 14:24:37.290085 0.68652,1.10181,0.24683
03/26/20 14:24:37.299400 0.63135,1.14209,0.19678
03/26/20 14:24:37.308472 0.35571,1.14185,0.30249
03/26/20 14:24:37.313831 0.46753,1.08813,0.15698
03/26/20 14:24:37.323158 0.46094,1.13477,0.01855
03/26/20 14:24:37.332474 0.39087,1.15381,0.00732
03/26/20 14:24:37.341545 0.39404,1.13599,-0.00684
03/26/20 14:24:37.350864 0.40747,1.11450,-0.02051
03/26/20 14:24:37.360176 0.43457,1.07202,-0.00952
03/26/20 14:24:37.369507 0.49487,0.98389,-0.00977
03/26/20 14:24:37.378822 0.51855,0.91821,0.01953
03/26/20 14:24:37.388149 0.59644,0.94482,0.08008
03/26/20 14:24:37.397476 0.66724,1.01172,0.05786
03/26/20 14:24:37.407040 0.64160,1.05981,0.00244
03/26/20 14:24:37.416370 0.55786,1.06274,-0.03003
03/26/20 14:24:37.425697 0.46582,1.07056,-0.03076
03/26/20 14:24:37.435009 0.42969,1.00464,-0.01221
03/26/20 14:24:37.444332 0.40259,0.91455,-0.01636
03/26/20 14:24:37.453655 0.40552,0.90137,-0.01953
03/26/20 14:24:37.462986 0.49731,0.89355,-0.06470
03/26/20 14:24:37.472061 0.53467,0.88086,-0.12207
03/26/20 14:24:37.481388 0.51758,0.80371,-0.13794
03/26/20 14:24:37.490711 0.53760,0.74072,-0.15918
03/26/20 14:24:37.496056 0.51172,0.70996,-0.14941
03/26/20 14:24:37.505379 0.46094,0.64868,-0.20508
03/26/20 14:24:37.514454 0.48120,0.60132,-0.06543
03/26/20 14:24:37.523785 0.34912,0.54834,-0.07275
03/26/20 14:24:37.533104 0.36743,0.56152,-0.12695
03/26/20 14:24:37.542423 0.34082,0.65308,-0.23608
03/26/20 14:24:37.551765 0.27100,0.71631,-0.25098
03/26/20 14:24:37.561092 0.26489,0.77148,-0.16748
03/26/20 14:24:37.570416 0.23291,0.81714,-0.12744
03/26/20 14:24:37.579529 0.26074,0.82959,-0.11133
03/26/20 14:24:37.584881 0.25342,0.84204,-0.11548
03/26/20 14:24:37.594204 0.26074,0.89673,-0.16260
03/26/20 14:24:37.603523 0.32495,0.93091,-0.24536
03/26/20 14:24:37.612587 0.36987,0.94678,-0.19775
03/26/20 14:24:37.621910 0.38696,0.87158,-0.03638
03/26/20 14:24:37.631245 0.45605,0.81250,0.02979
03/26/20 14:24:37.640568 0.49146,0.84668,0.02173
03/26/20 14:24:37.649891 0.50122,0.84668,0.02222
03/26/20 14:24:37.659210 0.53931,0.78369,0.04932
03/26/20 14:24:37.668537 0.65332,0.73438,0.14160
03/26/20 14:24:37.678089 0.68384,0.61646,0.04053
03/26/20 14:24:37.687416 0.65088,0.61572,-0.10840
03/26/20 14:24:37.696754 0.61743,0.61914,-0.31006
03/26/20 14:24:37.706081 0.59692,0.67871,-0.42896
03/26/20 14:24:37.715401 0.60791,0.83252,-0.15063
03/26/20 14:24:37.724709 0.59644,0.78955,-0.04224
03/26/20 14:24:37.734024 0.62329,0.77808,-0.04834
03/26/20 14:24:37.743092 0.62891,0.80273,-0.05444
03/26/20 14:24:37.752411 0.61279,0.80371,-0.15820
03/26/20 14:24:37.761726 0.61694,0.77490,-0.21997
03/26/20 14:24:37.767075 0.62231,0.76855,-0.17676
03/26/20 14:24:37.776138 0.58179,0.75342,0.00049
03/26/20 14:24:37.785477 0.52588,0.70459,-0.01294
03/26/20 14:24:37.794819 0.50610,0.76196,-0.13110
03/26/20 14:24:37.804153 0.47876,0.85205,0.09790
03/26/20 14:24:37.813496 0.45435,0.78784,0.14990
03/26/20 14:24:37.822838 0.46387,0.69482,0.25952
03/26/20 14:24:37.832188 0.48535,0.59766,0.33203
03/26/20 14:24:37.841286 0.49219,0.55737,0.31567
03/26/20 14:24:37.850647 0.49878,0.64771,0.44336
03/26/20 14:24:37.860001 0.53369,0.52588,0.43701
03/26/20 14:24:37.865364 0.56567,0.47070,0.38623
03/26/20 14:24:37.874710 0.58179,0.49390,0.26123
03/26/20 14:24:37.883801 0.60278,0.54199,0.21509
03/26/20 14:24:37.893127 0.60352,0.51880,0.33936
03/26/20 14:24:37.902458 0.64868,0.38086,0.46240
03/26/20 14:24:37.911785 0.66699,0.37207,0.40527
03/26/20 14:24:37.921112 0.63770,0.44116,0.37744
03/26/20 14:24:37.930443 0.62329,0.46973,0.34131
03/26/20 14:24:37.939774 0.61377,0.45020,0.29004
03/26/20 14:24:37.948856 0.62451,0.38818,0.19287
03/26/20 14:24:37.954220 0.59326,0.39014,0.18945
03/26/20 14:24:37.963562 0.54590,0.40820,0.16260
03/26/20 14:24:37.972893 0.50220,0.45654,0.16406
03/26/20 14:24:37.981987 0.48438,0.53613,0.18091
03/26/20 14:24:37.991322 0.49146,0.58691,0.19653
03/26/20 14:24:38.000671 0.52100,0.71045,0.16895
03/26/20 14:24:38.010021 0.54492,0.78467,0.14453
03/26/20 14:24:38.019371 0.60205,0.79834,0.15137
03/26/20 14:24:38.028732 0.67822,0.76611,0.13892
03/26/20 14:24:38.038086 0.74146,0.79419,0.10376
03/26/20 14:24:38.047672 0.84399,0.89160,0.14844
03/26/20 14:24:38.057014 0.92651,0.89722,0.23975
03/26/20 14:24:38.066349 0.96216,0.82275,0.29883
03/26/20 14:24:38.075687 0.98022,0.75586,0.33472
03/26/20 14:24:38.085022 0.97363,0.80518,0.30811
03/26/20 14:24:38.094364 0.95605,0.82471,0.27686
03/26/20 14:24:38.103718 0.91650,0.80664,0.20972
03/26/20 14:24:38.112831 0.89233,0.81372,0.15137
03/26/20 14:24:38.122169 0.85181,0.84863,0.13184
03/26/20 14:24:38.131508 0.80493,0.87280,0.12012
03/26/20 14:24:38.136860 0.79297,0.87622,0.10596
03/26/20 14:24:38.146183 0.81274,0.93555,0.04956
03/26/20 14:24:38.155258 0.86523,0.95972,0.05493
03/26/20 14:24:38.164578 0.88647,0.90918,0.08545
03/26/20 14:24:38.173904 0.91406,0.81250,0.11133
03/26/20 14:24:38.183243 0.92847,0.77905,0.11475
03/26/20 14:24:38.192585 0.95581,0.73901,0.11621
03/26/20 14:24:38.201920 0.95801,0.65430,0.13135
03/26/20 14:24:38.211006 0.95117,0.61060,0.11792
03/26/20 14:24:38.220348 0.91846,0.56641,0.08984
03/26/20 14:24:38.225704 0.87451,0.58691,0.14136
03/26/20 14:24:38.235046 0.86475,0.57031,-0.00244
03/26/20 14:24:38.244389 0.80640,0.52954,-0.02637
03/26/20 14:24:38.253475 0.75537,0.50635,-0.02588
03/26/20 14:24:38.262802 0.71118,0.51099,-0.04785
03/26/20 14:24:38.272118 0.68481,0.50000,-0.06396
03/26/20 14:24:38.281448 0.65454,0.51733,-0.06641
03/26/20 14:24:38.290783 0.63013,0.50439,-0.05981
03/26/20 14:24:38.300114 0.61768,0.47314,-0.07520
03/26/20 14:24:38.309441 0.62329,0.48120,-0.07080
03/26/20 14:24:38.318523 0.62500,0.48560,-0.06177
03/26/20 14:24:38.323872 0.62061,0.48267,-0.05029
03/26/20 14:24:38.333191 0.61914,0.47705,-0.03833
03/26/20 14:24:38.342510 0.62476,0.46265,-0.03271
03/26/20 14:24:38.351601 0.63281,0.43848,-0.02441
03/26/20 14:24:38.360935 0.63306,0.43604,-0.03174
03/26/20 14:24:38.370262 0.64795,0.44189,-0.02515
03/26/20 14:24:38.379585 0.67041,0.44531,-0.04224
03/26/20 14:24:38.388912 0.69922,0.46289,-0.03027
03/26/20 14:24:38.398239 0.72388,0.43408,-0.00049
03/26/20 14:24:38.407574 0.74902,0.41943,-0.02124
03/26/20 14:24:38.417130 0.77490,0.44336,-0.02124
03/26/20 14:24:38.426468 0.79712,0.43701,0.00098
03/26/20 14:24:38.435795 0.81177,0.43433,0.01123
03/26/20 14:24:38.445122 0.82666,0.42188,0.02295
03/26/20 14:24:38.454456 0.84863,0.43555,-0.00928
03/26/20 14:24:38.463787 0.83789,0.47021,-0.04004
03/26/20 14:24:38.473118 0.82227,0.52832,-0.07471
03/26/20 14:24:38.482185 0.79590,0.57178,-0.07422
03/26/20 14:24:38.491505 0.78516,0.62354,-0.07935
03/26/20 14:24:38.500820 0.77466,0.68823,-0.07788
03/26/20 14:24:38.506172 0.77490,0.71436,-0.07861
03/26/20 14:24:38.515503 0.76489,0.75781,-0.06787
03/26/20 14:24:38.524586 0.75049,0.77734,-0.06836
03/26/20 14:24:38.533913 0.75635,0.77783,-0.04590
03/26/20 14:24:38.543240 0.77661,0.77710,-0.03418
03/26/20 14:24:38.552578 0.79199,0.78809,-0.04834
03/26/20 14:24:38.561905 0.81958,0.80029,-0.04736
03/26/20 14:24:38.571228 0.85571,0.78467,-0.04834
03/26/20 14:24:38.580345 0.89526,0.76465,-0.06152
03/26/20 14:24:38.589661 0.90942,0.76367,-0.04639
03/26/20 14:24:38.595013 0.92163,0.75024,-0.02734
03/26/20 14:24:38.604324 0.93994,0.71436,-0.00732
03/26/20 14:24:38.613644 0.94873,0.64307,-0.01733
03/26/20 14:24:38.622742 0.94604,0.57642,-0.02344
03/26/20 14:24:38.632084 0.94922,0.51416,-0.00244
03/26/20 14:24:38.641418 0.95557,0.46289,0.00562
03/26/20 14:24:38.650757 0.96069,0.43726,0.00146
03/26/20 14:24:38.660099 0.95581,0.43262,-0.00684
03/26/20 14:24:38.669437 0.93433,0.45215,0.00732
03/26/20 14:24:38.678772 0.89575,0.45508,0.03418
03/26/20 14:24:38.688332 0.85693,0.45068,0.03076
03/26/20 14:24:38.697666 0.82666,0.44214,0.03760
03/26/20 14:24:38.706993 0.80981,0.44189,0.06934
03/26/20 14:24:38.716328 0.78467,0.45264,0.08887
03/26/20 14:24:38.725647 0.78223,0.48071,0.09497
03/26/20 14:24:38.734970 0.80005,0.55078,0.12329
03/26/20 14:24:38.744293 0.86499,0.59131,0.14380
03/26/20 14:24:38.753372 0.94385,0.57397,0.18555
03/26/20 14:24:38.762688 0.94092,0.56421,0.20898
03/26/20 14:24:38.772015 0.90503,0.69824,0.23926
03/26/20 14:24:38.777363 0.90942,0.78394,0.25317
03/26/20 14:24:38.786442 0.84814,0.90649,0.26001
03/26/20 14:24:38.795761 0.76440,1.07617,0.24658
03/26/20 14:24:38.805084 0.66968,1.19458,0.25464
03/26/20 14:24:38.814407 0.51318,1.25293,0.40210
03/26/20 14:24:38.823734 0.54663,1.25098,0.33691
03/26/20 14:24:38.833061 0.68140,1.14429,0.10571
03/26/20 14:24:38.842400 0.58374,1.07837,0.11377
03/26/20 14:24:38.851494 0.57886,0.97705,0.09741
03/26/20 14:24:38.860836 0.47021,0.89795,0.08496
03/26/20 14:24:38.866196 0.44800,0.83447,0.10352
03/26/20 14:24:38.875534 0.42212,0.71338,0.10791
03/26/20 14:24:38.884869 0.39038,0.64795,0.07080
03/26/20 14:24:38.893967 0.32739,0.60840,0.03516
03/26/20 14:24:38.903317 0.30249,0.47559,0.03784
03/26/20 14:24:38.912674 0.27417,0.34082,0.04175
03/26/20 14:24:38.922031 0.26099,0.28247,0.03418
03/26/20 14:24:38.931393 0.28369,0.29053,0.07788
03/26/20 14:24:38.940746 0.30322,0.29346,0.07031
03/26/20 14:24:38.950104 0.36523,0.36548,0.05322
03/26/20 14:24:38.959206 0.44214,0.44727,0.05957
03/26/20 14:24:38.964573 0.47583,0.47803,0.08325
03/26/20 14:24:38.973923 0.61377,0.47583,-0.04541
03/26/20 14:24:38.983276 0.57690,0.47656,0.08716
03/26/20 14:24:38.992386 0.53906,0.54443,0.23315
03/26/20 14:24:39.001736 0.47998,0.51929,0.23315
03/26/20 14:24:39.011093 0.40479,0.45581,0.20215
03/26/20 14:24:39.020443 0.37378,0.43774,0.16309
03/26/20 14:24:39.029793 0.39697,0.47388,0.12354
03/26/20 14:24:39.039146 0.40039,0.48438,0.16260
03/26/20 14:24:39.048496 0.42261,0.54688,0.16553
03/26/20 14:24:39.058090 0.43066,0.62158,0.19336
03/26/20 14:24:39.067451 0.39404,0.66479,0.22437
03/26/20 14:24:39.076813 0.28394,0.76221,0.24756
03/26/20 14:24:39.086166 0.23560,0.81689,0.24194
03/26/20 14:24:39.095528 0.30518,0.85962,0.23047
03/26/20 14:24:39.104889 0.39233,0.94287,0.26563
03/26/20 14:24:39.114254 0.47729,1.03125,0.32837
03/26/20 14:24:39.123367 0.53516,1.11206,0.37622
03/26/20 14:24:39.132729 0.56030,1.19604,0.39136
03/26/20 14:24:39.142094 0.58325,1.34131,0.22900
03/26/20 14:24:39.147465 0.60425,1.38232,0.23169
03/26/20 14:24:39.156803 0.43433,1.38550,0.32666
03/26/20 14:24:39.165901 0.43848,1.36670,0.33350
03/26/20 14:24:39.175243 0.47534,1.33618,0.33569
03/26/20 14:24:39.184589 0.50049,1.24878,0.37036
03/26/20 14:24:39.193935 0.53613,1.19653,0.39185
03/26/20 14:24:39.203281 0.52173,1.13428,0.41309
03/26/20 14:24:39.212624 0.52490,1.08301,0.41113
03/26/20 14:24:39.221954 0.52759,1.06396,0.41748
03/26/20 14:24:39.231037 0.51831,1.03809,0.41211
03/26/20 14:24:39.236389 0.51587,1.01880,0.41650
03/26/20 14:24:39.245720 0.47144,0.97583,0.40869
03/26/20 14:24:39.255047 0.47290,0.91162,0.39453
03/26/20 14:24:39.264126 0.44702,0.84497,0.36841
03/26/20 14:24:39.273453 0.40479,0.79517,0.35107
03/26/20 14:24:39.282787 0.35498,0.82617,0.34521
03/26/20 14:24:39.292110 0.27222,0.78711,0.34766
03/26/20 14:24:39.301445 0.29102,0.78467,0.32373
03/26/20 14:24:39.310780 0.24121,0.77954,0.32471
03/26/20 14:24:39.320107 0.29517,0.73096,0.30444
03/26/20 14:24:39.329666 0.30054,0.70557,0.32715
03/26/20 14:24:39.338993 0.32910,0.70313,0.33667
03/26/20 14:24:39.348328 0.39307,0.72705,0.33569
03/26/20 14:24:39.357662 0.43359,0.73071,0.34180
03/26/20 14:24:39.366997 0.46484,0.68506,0.34009
03/26/20 14:24:39.376328 0.49072,0.66846,0.32520
03/26/20 14:24:39.385654 0.52441,0.68652,0.31519
03/26/20 14:24:39.394726 0.52490,0.66260,0.32910
03/26/20 14:24:39.404049 0.50098,0.64478,0.36108
03/26/20 14:24:39.413364 0.49561,0.63647,0.35132
03/26/20 14:24:39.422695 0.45874,0.58276,0.36011
03/26/20 14:24:39.428051 0.44141,0.54614,0.52710
03/26/20 14:24:39.437119 0.48486,0.69971,0.48047
03/26/20 14:24:39.446438 0.52051,0.66113,0.35791
03/26/20 14:24:39.455757 0.51538,0.66724,0.29810
03/26/20 14:24:39.465080 0.47632,0.71753,0.32227
03/26/20 14:24:39.474411 0.44678,0.69507,0.29419
03/26/20 14:24:39.483734 0.42773,0.66016,0.23730
03/26/20 14:24:39.493061 0.42529,0.64893,0.21875
03/26/20 14:24:39.502136 0.42676,0.65723,0.19385
03/26/20 14:24:39.511459 0.40503,0.63647,0.21387
03/26/20 14:24:39.516811 0.38403,0.63525,0.22559
03/26/20 14:24:39.526138 0.36816,0.61670,0.19775
03/26/20 14:24:39.535210 0.33179,0.62207,0.19849
03/26/20 14:24:39.544533 0.29272,0.59131,0.21582
03/26/20 14:24:39.553848 0.27832,0.57983,0.20264
03/26/20 14:24:39.563168 0.26416,0.59741,0.17603
03/26/20 14:24:39.572483 0.26855,0.62891,0.16357
03/26/20 14:24:39.581806 0.30713,0.60693,0.16895
03/26/20 14:24:39.591126 0.35400,0.60010,0.17188
03/26/20 14:24:39.600227 0.53003,0.52783,-0.15234
03/26/20 14:24:39.605587 0.41846,0.55688,0.24829
03/26/20 14:24:39.614899 0.48047,0.59351,0.38745
03/26/20 14:24:39.624214 0.55811,0.53247,0.24072
03/26/20 14:24:39.633282 0.61743,0.48022,0.29468
03/26/20 14:24:39.642593 0.68970,0.45190,0.33154
03/26/20 14:24:39.651901 0.74146,0.46387,0.34326
03/26/20 14:24:39.661209 0.75586,0.46826,0.37231
03/26/20 14:24:39.670506 0.75171,0.47168,0.41968
03/26/20 14:24:39.679810 0.75439,0.45605,0.42871
03/26/20 14:24:39.689117 0.71436,0.45898,0.48999
03/26/20 14:24:39.698666 0.69482,0.46729,0.52295
03/26/20 14:24:39.707977 0.72339,0.49438,0.49536
03/26/20 14:24:39.717297 0.74683,0.53955,0.47119
03/26/20 14:24:39.726616 0.77100,0.61670,0.48096
03/26/20 14:24:39.735943 0.79980,0.69043,0.47852
03/26/20 14:24:39.745262 0.85156,0.76221,0.44043
03/26/20 14:24:39.754574 0.87793,0.84692,0.46729
03/26/20 14:24:39.763630 0.89893,0.89795,0.47314
03/26/20 14:24:39.772949 0.87988,0.96094,0.52441
03/26/20 14:24:39.782265 0.89404,1.07324,0.49927
03/26/20 14:24:39.791592 0.87158,1.11084,0.47314
03/26/20 14:24:39.801392 0.83447,1.09351,0.43945
03/26/20 14:24:39.810715 0.78540,1.03418,0.38208
03/26/20 14:24:39.820034 0.76172,0.95142,0.33423
03/26/20 14:24:39.829105 0.76001,0.87500,0.26074
03/26/20 14:24:39.838425 0.78149,0.80737,0.18091
03/26/20 14:24:39.847744 0.80664,0.78271,0.10889
03/26/20 14:24:39.857056 0.81274,0.74341,-0.00757
03/26/20 14:24:39.866375 0.79590,0.78101,0.05835
03/26/20 14:24:39.875702 0.80737,0.78223,-0.01318
03/26/20 14:24:39.885033 0.80127,0.69312,-0.07031
03/26/20 14:24:39.894573 0.84009,0.68018,-0.12939
03/26/20 14:24:39.903885 0.87671,0.71558,-0.00317
03/26/20 14:24:39.913189 0.81616,0.72461,-0.09253
03/26/20 14:24:39.922504 0.81689,0.70654,-0.12305
03/26/20 14:24:39.931809 0.83398,0.66553,-0.13745
03/26/20 14:24:39.941120 0.83936,0.67603,-0.15869
03/26/20 14:24:39.950413 0.85376,0.66650,-0.18604
03/26/20 14:24:39.959469 0.86548,0.59277,-0.19678
03/26/20 14:24:39.968777 0.85400,0.57861,-0.16797
03/26/20 14:24:39.978081 0.79761,0.57471,-0.22583
03/26/20 14:24:39.983418 0.78345,0.57568,-0.25732
03/26/20 14:24:39.992722 0.72046,0.58691,-0.30518
03/26/20 14:24:40.001778 0.68774,0.62744,-0.28149
03/26/20 14:24:40.011086 0.66357,0.61401,-0.25928
03/26/20 14:24:40.020382 0.64355,0.56860,-0.24414
03/26/20 14:24:40.029686 0.64331,0.52271,-0.22729
03/26/20 14:24:40.038986 0.66919,0.47876,-0.22705
03/26/20 14:24:40.048286 0.68848,0.44922,-0.25732
03/26/20 14:24:40.057346 0.70483,0.44434,-0.24805
03/26/20 14:24:40.066654 0.75000,0.45117,-0.27417
03/26/20 14:24:40.071995 0.78296,0.45728,-0.29370
03/26/20 14:24:40.081310 0.79199,0.45435,-0.29199
03/26/20 14:24:40.090622 0.77661,0.45313,-0.29150
03/26/20 14:24:40.099693 0.74512,0.49512,-0.32495
03/26/20 14:24:40.109013 0.72900,0.56055,-0.38721
03/26/20 14:24:40.118328 0.71362,0.56299,-0.36035
03/26/20 14:24:40.127636 0.69092,0.55762,-0.34814
03/26/20 14:24:40.136944 0.65381,0.58447,-0.35693
03/26/20 14:24:40.146240 0.67310,0.57568,-0.35718
03/26/20 14:24:40.155289 0.69507,0.53491,-0.33936
03/26/20 14:24:40.160618 0.73779,0.50122,-0.35059
03/26/20 14:24:40.169918 0.85620,0.39893,-0.37183
03/26/20 14:24:40.179230 0.88110,0.36938,-0.40210
03/26/20 14:24:40.188541 0.91577,0.34277,-0.45264
03/26/20 14:24:40.197601 0.94043,0.34766,-0.50537
03/26/20 14:24:40.206917 0.95532,0.35938,-0.50342
03/26/20 14:24:40.216240 0.96924,0.39160,-0.53027
03/26/20 14:24:40.225571 0.95972,0.41577,-0.53125
03/26/20 14:24:40.234901 0.96729,0.44678,-0.55566
03/26/20 14:24:40.244244 0.95825,0.51611,-0.62305
03/26/20 14:24:40.254059 0.95288,0.57617,-0.65332
03/26/20 14:24:40.263153 0.91455,0.58398,-0.64941
03/26/20 14:24:40.272491 0.86255,0.59131,-0.58032
03/26/20 14:24:40.281830 0.86035,0.53857,-0.52441
03/26/20 14:24:40.291164 0.84326,0.50366,-0.47363
03/26/20 14:24:40.300499 0.83472,0.43677,-0.42822
03/26/20 14:24:40.309822 0.81592,0.36401,-0.42749
03/26/20 14:24:40.319157 0.79004,0.29053,-0.42065
03/26/20 14:24:40.328239 0.76587,0.28613,-0.40234
03/26/20 14:24:40.337566 0.75806,0.31812,-0.36328
03/26/20 14:24:40.342915 0.71802,0.33691,-0.35645
03/26/20 14:24:40.352249 0.72510,0.33984,-0.34692
03/26/20 14:24:40.361343 0.74341,0.36816,-0.33301
